ax,ay,az,temp,gx,gy,gz
-0.0127,0.0803,1.0142,32.91,-2.26,-0.473,0.809
-0.0122,0.0823,1.0208,32.91,-2.092,-0.405,0.649
-0.0093,0.083,1.0173,32.91,-2.313,-0.305,0.733
-0.0103,0.0881,1.0217,32.91,-2.137,-0.405,0.527
-0.0042,0.0894,1.0186,32.91,-2.351,-0.656,0.71
-0.0063,0.0818,1.02,33.0,-2.038,-0.366,0.641
-0.0063,0.0837,1.019,32.81,-2.13,-0.382,0.748
-0.0129,0.0898,1.0208,32.86,-2.221,-0.412,0.565
-0.0056,0.082,1.0276,32.95,-2.13,-0.412,0.634
-0.0115,0.0876,1.0251,32.95,-2.191,-0.58,0.641
-0.0137,0.0842,1.02,32.86,-2.275,-0.237,0.542
-0.009,0.0864,1.009,32.95,-2.206,-0.519,0.794
-0.0049,0.084,1.0154,32.86,-2.107,-0.282,0.748
-0.0159,0.0823,1.0232,32.95,-2.198,-0.313,0.603
-0.0095,0.0781,1.0215,32.95,-2.267,-0.344,0.832
-0.0137,0.0896,1.0266,32.86,-2.29,-0.435,0.656
-0.0146,0.0847,1.0176,32.95,-2.267,-0.427,0.893
-0.0139,0.0815,1.0286,32.86,-1.992,-0.45,0.542
-0.0117,0.0879,1.0227,32.86,-1.954,-0.458,0.611
-0.0125,0.0811,1.0225,33.05,-2.282,-0.321,0.565
-0.0098,0.0884,1.0176,32.86,-2.084,-0.405,0.71
-0.011,0.0828,1.0247,32.91,-2.282,-0.481,0.725
-0.0068,0.0813,1.0137,32.86,-2.26,-0.229,0.664
-0.0105,0.0808,1.0168,32.81,-2.183,-0.397,0.695
-0.0044,0.085,1.0327,32.86,-2.336,-0.45,0.672
-0.0093,0.0823,1.0142,32.91,-2.26,-0.466,0.656
-0.012,0.0808,1.0242,32.95,-2.13,-0.397,0.626
-0.0095,0.0857,1.0144,32.81,-2.206,-0.511,0.611
-0.0076,0.0835,1.0283,32.95,-2.168,-0.435,0.695
-0.0081,0.0854,1.021,32.91,-2.29,-0.496,0.626
-0.0098,0.0803,1.0295,33.0,-2.115,-0.389,0.71
-0.0125,0.0918,1.0266,32.91,-2.176,-0.435,0.481
-0.011,0.0781,1.0212,32.81,-2.214,-0.427,0.786
-0.0146,0.0835,1.0225,32.91,-2.244,-0.458,0.725
-0.0125,0.0774,1.0273,32.91,-2.168,-0.481,0.573
-0.0093,0.0801,1.0137,33.0,-2.13,-0.42,0.55
-0.0095,0.0874,1.0181,32.91,-2.13,-0.221,0.718
-0.0071,0.0811,1.0239,32.91,-2.29,-0.374,0.618
-0.0061,0.0825,1.0176,32.91,-2.321,-0.313,0.725
-0.0098,0.0786,1.0242,32.81,-2.015,-0.473,0.542
-0.0127,0.0842,1.0303,32.81,-2.168,-0.443,0.634
-0.0107,0.0872,1.02,33.0,-2.237,-0.351,0.71
-0.0115,0.0825,1.031,32.91,-1.962,-0.466,0.687
-0.0068,0.0864,1.02,32.81,-2.221,-0.466,0.779
-0.0132,0.0825,1.0237,32.91,-2.038,-0.305,0.634
-0.0088,0.0842,1.0229,32.91,-2.191,-0.412,0.695
-0.0073,0.0857,1.0205,32.91,-2.008,-0.328,0.573
-0.0115,0.0869,1.0203,32.91,-2.107,-0.45,0.687
-0.0139,0.0793,1.0244,32.91,-2.427,-0.397,0.611
-0.0129,0.0876,1.0315,33.0,-2.191,-0.29,0.687
-0.0078,0.0798,1.0186,32.91,-2.267,-0.382,0.519
-0.0093,0.0808,1.0239,33.0,-2.275,-0.237,0.771
-0.0076,0.0847,1.0239,32.91,-2.076,-0.397,0.672
-0.0034,0.0835,1.0237,32.91,-2.137,-0.458,0.718
-0.0085,0.0879,1.0288,33.0,-2.183,-0.435,0.763
-0.012,0.0815,1.022,33.0,-2.168,-0.511,0.695
-0.0063,0.0825,1.0215,32.81,-2.13,-0.504,0.756
-0.0056,0.0852,1.0149,32.91,-2.382,-0.443,0.573
-0.0071,0.0818,1.0137,33.0,-2.107,-0.427,0.885
-0.011,0.0913,1.0149,32.91,-2.069,-0.557,0.641
-0.0137,0.0815,1.0229,32.91,-2.046,-0.45,0.542
-0.0081,0.0842,1.0244,32.91,-2.122,-0.435,0.718
-0.0122,0.0854,1.0149,32.91,-2.244,-0.481,0.695
-0.0081,0.0825,1.0247,32.91,-2.153,-0.26,0.641
-0.0125,0.0891,1.0269,33.0,-2.244,-0.389,0.565
-0.0085,0.0867,1.0281,32.91,-2.145,-0.336,0.534
-0.0076,0.0825,1.019,32.91,-2.244,-0.504,0.802
-0.0095,0.0801,1.0168,32.81,-2.237,-0.557,0.695
-0.0105,0.0862,1.0322,32.86,-2.137,-0.29,0.588
-0.0137,0.0864,1.0178,32.86,-2.275,-0.397,0.71
-0.0115,0.0825,1.0151,32.95,-2.16,-0.443,0.58
-0.0132,0.0815,1.0259,32.86,-2.153,-0.382,0.687
-0.0173,0.084,1.0205,32.95,-2.252,-0.443,0.527
-0.0088,0.0869,1.0286,32.95,-2.153,-0.321,0.611
-0.0093,0.0847,1.0271,32.95,-2.176,-0.527,0.71
-0.0132,0.082,1.0266,32.86,-2.29,-0.427,0.534
-0.0046,0.0842,1.0239,32.95,-2.359,-0.252,0.588
-0.0085,0.0803,1.0259,32.95,-2.0,-0.397,0.695
-0.0127,0.084,1.0256,32.95,-2.198,-0.55,0.511
-0.0137,0.0872,1.0222,32.95,-2.527,-0.443,0.557
-0.0083,0.0774,1.0293,32.95,-2.099,-0.489,0.786
-0.0125,0.0828,1.0227,32.95,-2.237,-0.328,0.542
-0.01,0.0833,1.0176,32.95,-2.244,-0.519,0.695
-0.0183,0.0818,1.0305,32.95,-2.359,-0.397,0.519
-0.0125,0.0833,1.0295,32.86,-2.046,-0.389,0.588
-0.012,0.0874,1.0186,32.95,-2.099,-0.198,0.45
-0.0066,0.0808,1.022,32.95,-2.191,-0.458,0.687
-0.0132,0.0872,1.0212,32.95,-2.29,-0.397,0.412
-0.0027,0.0867,1.0198,32.95,-2.13,-0.336,0.634
-0.012,0.0793,1.0222,32.95,-2.244,-0.336,0.634
-0.011,0.0784,1.0127,32.95,-2.214,-0.664,0.565
-0.0132,0.0879,1.0217,32.95,-2.427,-0.366,0.771
-0.0154,0.0825,1.0264,32.95,-2.13,-0.397,0.618
-0.009,0.0862,1.0278,32.86,-2.336,-0.443,0.817
-0.0107,0.0837,1.0229,32.95,-2.206,-0.45,0.664
-0.0007,0.0862,1.0212,32.86,-2.168,-0.603,0.45
-0.0115,0.0835,1.0227,32.95,-2.153,-0.374,0.542
-0.0061,0.0813,1.0232,32.95,-2.351,-0.389,0.603
-0.0112,0.0872,1.0188,32.86,-2.183,-0.496,0.473
-0.0076,0.085,1.02,32.86,-2.328,-0.557,0.725
-0.0117,0.0811,1.0229,32.95,-2.076,-0.374,0.687
-0.0107,0.0796,1.0159,32.95,-2.107,-0.351,0.664
-0.0146,0.0879,1.0234,32.86,-2.015,-0.611,0.695
-0.0122,0.0793,1.0198,32.86,-1.977,-0.237,0.489
-0.0154,0.0847,1.0244,33.05,-2.298,-0.55,0.611
-0.0088,0.0811,1.0264,32.91,-2.069,-0.405,0.763
-0.019,0.0811,1.0186,33.0,-2.099,-0.405,0.748
-0.0137,0.0813,1.0222,33.0,-2.252,-0.313,0.58
-0.0112,0.0813,1.0229,32.91,-2.16,-0.366,0.496
-0.0186,0.0835,1.0173,32.91,-2.252,-0.382,0.565
-0.012,0.0845,1.0247,32.81,-2.229,-0.252,0.58
-0.0024,0.0867,1.0164,32.95,-2.221,-0.389,0.71
-0.0134,0.0852,1.0188,32.95,-2.115,-0.573,0.672
-0.0095,0.0869,1.0183,32.86,-2.092,-0.359,0.748
-0.0112,0.0869,1.0093,32.86,-2.275,-0.55,0.557
-0.0107,0.0842,1.0273,32.86,-2.145,-0.45,0.595
-0.0154,0.084,1.0208,32.91,-2.336,-0.519,0.603
-0.0149,0.0818,1.0232,32.86,-2.16,-0.336,0.55
-0.0083,0.0886,1.0137,33.0,-2.115,-0.298,0.435
-0.0139,0.082,1.021,32.91,-2.305,-0.412,0.626
-0.0151,0.0818,1.0239,32.91,-2.29,-0.374,0.702
-0.0068,0.0803,1.0161,32.91,-2.221,-0.351,0.649
-0.0134,0.0815,1.0232,32.91,-2.321,-0.496,0.534
-0.0088,0.0774,1.0244,32.91,-2.046,-0.427,0.641
-0.0132,0.092,1.0212,32.81,-2.29,-0.344,0.718
-0.0071,0.0801,1.0232,32.91,-2.16,-0.565,0.611
-0.0098,0.0842,1.0203,32.91,-2.275,-0.267,0.611
-0.0115,0.0803,1.0181,32.86,-2.145,-0.504,0.504
-0.0112,0.0876,1.0146,32.95,-2.252,-0.466,0.412
-0.012,0.0823,1.0212,32.95,-2.29,-0.473,0.863
-0.0032,0.0801,1.0166,32.95,-2.137,-0.336,0.611
-0.0154,0.0779,1.0244,32.95,-2.198,-0.45,0.511
-0.0095,0.0825,1.0115,32.86,-2.244,-0.298,0.351
-0.0037,0.0837,1.032,32.95,-2.084,-0.58,0.687
-0.0127,0.0867,1.0239,32.95,-2.145,-0.244,0.55
-0.0029,0.085,1.033,32.91,-2.191,-0.366,0.588
-0.0046,0.0808,1.0266,32.81,-2.153,-0.344,0.618
-0.0129,0.0867,1.0159,32.91,-2.092,-0.412,0.74
-0.0095,0.0835,1.0178,33.0,-2.092,-0.244,0.626
-0.0098,0.0842,1.02,32.81,-2.145,-0.42,0.687
-0.0146,0.0796,1.0281,33.0,-2.298,-0.298,0.542
-0.009,0.0867,1.0225,32.95,-2.191,-0.443,0.794
-0.01,0.0864,1.0232,32.86,-2.13,-0.267,0.504
-0.0129,0.0801,1.0227,32.86,-2.168,-0.214,0.702
-0.0129,0.0833,1.0178,32.95,-2.176,-0.473,0.679
-0.0066,0.0876,1.0225,32.91,-2.214,-0.313,0.695
-0.0068,0.0835,1.0256,32.95,-2.115,-0.542,0.626
-0.0188,0.0869,1.0286,32.91,-2.389,-0.473,0.55
-0.0071,0.0815,1.0278,32.91,-2.275,-0.328,0.611
-0.0068,0.0833,1.0344,32.91,-2.0,-0.336,0.679
-0.0107,0.0869,1.0176,32.81,-2.115,-0.336,0.679
-0.0027,0.083,1.0078,32.91,-2.214,-0.366,0.618
-0.0139,0.0847,1.0217,32.91,-2.183,-0.336,0.74
-0.0068,0.0854,1.0208,33.0,-2.351,-0.496,0.634
-0.0051,0.082,1.0212,32.91,-2.13,-0.565,0.664
-0.0076,0.0811,1.0171,32.91,-2.137,-0.397,0.695
-0.0173,0.083,1.0188,32.91,-2.168,-0.351,0.748
-0.0046,0.0825,1.02,32.91,-2.137,-0.344,0.611
-0.0073,0.0818,1.0242,32.81,-2.221,-0.496,0.611
-0.011,0.0867,1.0325,32.81,-2.137,-0.282,0.771
-0.0137,0.0823,1.0137,32.81,-2.206,-0.389,0.71
-0.0076,0.0845,1.0178,32.91,-2.221,-0.336,0.672
-0.009,0.0823,1.0198,32.91,-2.305,-0.366,0.733
-0.0081,0.0828,1.0181,32.91,-2.183,-0.282,0.908
-0.0068,0.0798,1.0259,32.91,-2.198,-0.176,0.748
-0.0071,0.0825,1.0261,32.91,-2.176,-0.466,0.71
-0.0105,0.0835,1.0234,32.91,-2.191,-0.412,0.656
-0.0095,0.0842,1.0269,33.0,-2.191,-0.374,0.74
-0.01,0.0835,1.0146,32.95,-2.168,-0.511,0.626
-0.0044,0.0801,1.0195,32.86,-2.282,-0.313,0.733
-0.0122,0.0835,1.0237,32.95,-2.191,-0.481,0.641
-0.0125,0.0862,1.0149,32.95,-2.374,-0.42,0.672
-0.0095,0.0872,1.0212,32.86,-2.053,-0.481,0.55
-0.0059,0.0769,1.0168,32.95,-2.229,-0.305,0.763
-0.0132,0.0833,1.0286,32.95,-2.145,-0.137,0.687
-0.011,0.0798,1.0281,32.95,-2.168,-0.443,0.588
-0.0083,0.0784,1.021,32.86,-2.244,-0.366,0.557
-0.0146,0.0859,1.0137,32.86,-2.092,-0.45,0.702
-0.0083,0.084,1.0208,32.95,-2.107,-0.466,0.481
-0.0112,0.0867,1.0256,32.86,-2.153,-0.55,0.718
-0.0103,0.0811,1.0193,32.95,-2.046,-0.511,0.427
-0.012,0.0828,1.0247,32.95,-2.153,-0.405,0.573
-0.0144,0.0781,1.0261,32.91,-2.198,-0.55,0.504
-0.0073,0.0813,1.0176,32.91,-2.145,-0.405,0.458
-0.0073,0.085,1.0225,32.81,-2.153,-0.397,0.641
-0.0068,0.0874,1.0227,32.91,-2.176,-0.527,0.595
-0.0112,0.0759,1.0273,33.0,-2.206,-0.45,0.84
-0.0029,0.083,1.0171,32.91,-2.168,-0.511,0.779
-0.0068,0.0811,1.0273,32.91,-2.115,-0.45,0.756
-0.0095,0.083,1.0222,32.91,-2.389,-0.321,0.489
-0.0107,0.0813,1.0164,32.91,-2.198,-0.435,0.74
-0.0137,0.0896,1.0242,32.95,-2.031,-0.466,0.771
-0.0127,0.0835,1.0251,32.86,-2.145,-0.366,0.664
-0.0129,0.0811,1.0251,32.95,-2.115,-0.473,0.595
-0.0098,0.0854,1.0176,32.95,-2.015,-0.26,0.458
-0.0088,0.0815,1.0159,32.86,-2.16,-0.45,0.664
-0.0112,0.0869,1.0085,32.86,-2.122,-0.466,0.489
-0.0063,0.0835,1.0234,32.95,-2.321,-0.389,0.71
-0.0117,0.0813,1.02,32.95,-2.214,-0.412,0.603
-0.009,0.0823,1.0278,32.86,-2.122,-0.29,0.55
-0.0134,0.085,1.0205,32.95,-2.336,-0.351,0.748
-0.0105,0.0818,1.0229,32.95,-2.145,-0.374,0.595
-0.0056,0.0798,1.021,32.91,-2.221,-0.397,0.748
-0.011,0.0811,1.0242,32.86,-2.137,-0.534,0.878
-0.0112,0.0881,1.019,33.0,-2.336,-0.366,0.504
-0.012,0.0835,1.0232,32.95,-2.282,-0.237,0.649
-0.0129,0.0864,1.022,32.91,-2.031,-0.29,0.649
-0.0093,0.075,1.0208,32.95,-2.351,-0.405,0.748
-0.0095,0.0793,1.0203,32.91,-2.16,-0.435,0.664
-0.0129,0.0852,1.0203,32.91,-2.42,-0.382,0.55
-0.0081,0.0833,1.0215,33.0,-2.298,-0.496,0.656
-0.01,0.0864,1.02,33.0,-2.145,-0.466,0.802
-0.0127,0.0818,1.0186,32.91,-2.145,-0.42,0.588
-0.0093,0.0837,1.019,32.91,-2.244,-0.473,0.733
-0.0068,0.0869,1.031,32.91,-2.336,-0.458,0.71
-0.0112,0.0813,1.0217,32.86,-2.092,-0.534,0.511
-0.0071,0.0796,1.0264,32.95,-2.237,-0.366,0.664
-0.0046,0.084,1.0291,32.86,-2.046,-0.42,0.779
-0.0151,0.0862,1.0156,32.95,-2.183,-0.321,0.458
-0.0117,0.0833,1.0195,32.81,-2.275,-0.389,0.618
-0.0134,0.0791,1.0137,32.91,-2.16,-0.305,0.687
-0.0081,0.0857,1.0159,32.91,-2.206,-0.252,0.489
-0.0105,0.0835,1.0125,32.91,-2.298,-0.344,0.695
-0.0066,0.0815,1.0193,33.0,-2.206,-0.267,0.634
-0.0085,0.0791,1.0234,33.0,-2.137,-0.382,0.718
-0.0115,0.0842,1.0234,32.86,-2.267,-0.504,0.817
-0.0051,0.0825,1.0273,32.95,-2.16,-0.267,0.672
-0.0076,0.0903,1.0234,32.86,-2.244,-0.519,0.58
-0.012,0.0852,1.0259,32.86,-2.023,-0.282,0.718
-0.0068,0.0815,1.0312,32.91,-1.962,-0.527,0.595
-0.009,0.0854,1.0234,32.86,-2.16,-0.511,0.664
-0.0151,0.0847,1.0261,33.0,-2.176,-0.412,0.687
-0.0122,0.0837,1.0229,32.91,-2.061,-0.359,0.641
-0.0039,0.0808,1.0312,33.0,-2.183,-0.382,0.527
-0.0068,0.0803,1.0193,32.91,-2.282,-0.481,0.702
-0.0122,0.0803,1.0181,33.0,-2.046,-0.359,0.695
-0.0117,0.0813,1.0237,32.91,-1.916,-0.389,0.489
-0.0098,0.0769,1.0271,32.91,-2.198,-0.389,0.718
-0.0105,0.0769,1.0239,32.91,-2.313,-0.55,0.695
-0.0166,0.0789,1.0237,32.91,-2.176,-0.466,0.656
-0.011,0.0813,1.0142,32.91,-2.221,-0.466,0.557
-0.0071,0.0828,1.0237,32.91,-2.229,-0.427,0.626
-0.0125,0.0825,1.0195,32.91,-2.176,-0.45,0.656
-0.0059,0.083,1.0295,32.91,-2.344,-0.198,0.702
-0.0129,0.0857,1.0222,32.95,-1.985,-0.42,0.656
-0.01,0.0845,1.0159,32.86,-2.328,-0.389,0.725
-0.012,0.0806,1.0249,32.95,-2.336,-0.359,0.611
-0.0166,0.0774,1.0215,32.86,-2.038,-0.313,0.565
-0.0081,0.0833,1.0256,32.86,-2.099,-0.656,0.489
-0.0107,0.0845,1.0215,32.86,-2.321,-0.313,0.611
-0.0073,0.0837,1.0164,32.91,-2.183,-0.42,0.733
-0.0171,0.083,1.0193,32.91,-2.008,-0.55,0.557
-0.0039,0.0857,1.0256,32.81,-2.145,-0.504,0.733
-0.0115,0.0872,1.0181,32.91,-2.084,-0.397,0.565
-0.009,0.0847,1.0208,32.91,-2.084,-0.267,0.74
-0.0068,0.0769,1.0112,32.91,-2.244,-0.275,0.672
-0.0159,0.0813,1.0261,32.81,-2.107,-0.351,0.702
-0.0122,0.0796,1.0305,32.95,-2.145,-0.313,0.641
-0.0093,0.0862,1.0203,32.86,-2.076,-0.237,0.718
-0.009,0.0828,1.0159,32.86,-2.397,-0.458,0.573
-0.0081,0.0852,1.0227,32.91,-2.305,-0.26,0.679
-0.0122,0.0828,1.0239,32.91,-2.374,-0.374,0.672
-0.0024,0.0818,1.0286,32.91,-2.206,-0.634,0.489
-0.0071,0.0837,1.0222,32.81,-2.122,-0.573,0.763
-0.0122,0.0803,1.0256,32.91,-2.115,-0.427,0.672
-0.009,0.0859,1.0249,32.91,-2.13,-0.336,0.664
-0.0083,0.0823,1.0247,32.81,-2.191,-0.412,0.573
-0.0081,0.083,1.0327,32.81,-2.16,-0.443,0.565
-0.0098,0.0862,1.0168,32.91,-2.344,-0.565,0.779
-0.01,0.0859,1.0144,32.91,-2.275,-0.427,0.489
-0.0056,0.0913,1.0249,32.91,-2.084,-0.42,0.473
-0.0044,0.0862,1.0222,32.95,-2.137,-0.176,0.511
-0.0078,0.0854,1.0286,32.77,-2.221,-0.489,0.55
-0.0081,0.0857,1.0344,32.95,-2.198,-0.313,0.702
-0.0103,0.0823,1.0244,32.95,-2.305,-0.191,0.603
-0.0103,0.0801,1.0247,32.95,-2.13,-0.481,0.618
-0.0112,0.0823,1.0244,32.86,-2.282,-0.405,0.679
-0.0083,0.0833,1.0281,32.95,-2.336,-0.458,0.641
-0.0085,0.0774,1.0154,32.86,-2.176,-0.611,0.695
-0.0134,0.0837,1.0293,32.95,-2.122,-0.412,0.527
-0.011,0.0764,1.0063,32.95,-2.115,-0.389,0.649
-0.0081,0.083,1.0208,32.95,-2.298,-0.435,0.618
-0.0081,0.0796,1.0203,33.0,-2.099,-0.244,0.656
-0.0137,0.0818,1.0271,32.91,-2.153,-0.313,0.695
-0.011,0.0786,1.0256,33.0,-2.076,-0.321,0.748
-0.001,0.0811,1.0251,32.91,-2.008,-0.389,0.725
-0.0127,0.0837,1.019,32.91,-2.183,-0.405,0.847
-0.0222,0.084,1.0361,32.91,-2.389,-0.481,0.71
-0.0078,0.0833,1.02,32.95,-2.29,-0.458,0.618
-0.0107,0.084,1.0215,32.86,-2.0,-0.382,0.649
-0.0176,0.0815,1.0249,32.86,-2.168,-0.359,0.527
-0.0076,0.0854,1.022,32.95,-2.29,-0.275,0.863
-0.0151,0.0801,1.0225,32.86,-2.084,-0.511,0.618
-0.0027,0.0811,1.0229,32.91,-2.198,-0.359,0.74
-0.0066,0.0854,1.0215,32.91,-2.176,-0.237,0.542
-0.0083,0.0837,1.0239,33.0,-2.176,-0.427,0.71
-0.0134,0.0784,1.0134,33.0,-2.206,-0.29,0.626
-0.0103,0.0796,1.022,32.91,-2.305,-0.435,0.618
-0.0085,0.0854,1.0264,32.81,-2.26,-0.588,0.649
-0.0068,0.0867,1.0217,32.95,-2.13,-0.504,0.542
-0.0127,0.0813,1.02,32.86,-2.16,-0.504,0.611
-0.0134,0.0857,1.0276,32.95,-2.206,-0.351,0.664
-0.011,0.0823,1.021,32.86,-2.122,-0.366,0.565
-0.0061,0.0837,1.0222,32.86,-2.107,-0.397,0.611
-0.01,0.0825,1.0256,32.91,-2.26,-0.321,0.603
-0.0103,0.0813,1.0198,32.91,-2.122,-0.115,0.58
-0.0098,0.0842,1.0229,32.91,-2.305,-0.252,0.557
-0.0083,0.0815,1.0286,32.91,-2.198,-0.443,0.618
-0.0125,0.0828,1.0203,32.91,-2.031,-0.389,0.733
-0.0081,0.0823,1.0232,32.95,-2.328,-0.344,0.695
-0.0115,0.0798,1.0264,32.86,-2.191,-0.45,0.649
-0.0076,0.084,1.019,32.86,-2.252,-0.389,0.519
-0.0049,0.0833,1.0176,32.95,-2.344,-0.664,0.702
-0.0107,0.0828,1.022,32.86,-2.534,-0.405,0.702
-0.009,0.0859,1.0286,32.91,-2.229,-0.389,0.931
-0.0073,0.0815,1.0161,32.91,-2.176,-0.45,0.71
-0.0051,0.0813,1.0225,32.91,-2.237,-0.565,0.626
-0.009,0.0869,1.0176,32.91,-2.122,-0.443,0.473
-0.0076,0.0828,1.0217,32.95,-2.237,-0.557,0.58
-0.009,0.0796,1.0215,32.86,-2.336,-0.336,0.695
-0.0076,0.0815,1.0078,32.86,-2.168,-0.321,0.725
-0.0098,0.0806,1.0188,33.0,-2.229,-0.527,0.672
-0.0071,0.0815,1.0183,32.91,-2.198,-0.405,0.557
-0.0103,0.0789,1.0232,32.91,-2.29,-0.458,0.687
-0.0166,0.0845,1.0266,32.95,-2.168,-0.359,0.695
-0.0137,0.083,1.021,32.95,-2.313,-0.298,0.55
-0.0112,0.0847,1.0176,32.95,-2.183,-0.58,0.649
-0.0056,0.085,1.0176,32.81,-2.061,-0.366,0.641
-0.0032,0.0857,1.0256,32.91,-2.267,-0.374,0.672
-0.0156,0.084,1.0247,32.91,-2.214,-0.466,0.84
-0.0061,0.0847,1.022,32.91,-2.244,-0.42,0.649
-0.0149,0.0894,1.0193,32.95,-2.122,-0.298,0.733
-0.0081,0.0835,1.0217,32.95,-2.13,-0.412,0.779
-0.0144,0.0835,1.0229,32.95,-2.29,-0.366,0.626
-0.0161,0.0833,1.0176,32.95,-2.168,-0.16,0.725
-0.0081,0.0793,1.0215,32.86,-2.305,-0.519,0.466
-0.0107,0.0813,1.0239,32.86,-2.137,-0.473,0.656
-0.0142,0.0852,1.0217,32.91,-2.336,-0.389,0.802
-0.009,0.0891,1.0134,32.91,-2.298,-0.359,0.794
-0.0063,0.0806,1.0273,32.91,-2.099,-0.45,0.664
-0.0049,0.0857,1.0183,32.91,-2.16,-0.336,0.718
-0.0056,0.0835,1.0212,32.86,-2.382,-0.473,0.626
-0.0076,0.083,1.019,32.86,-2.351,-0.511,0.489
-0.0078,0.0806,1.0168,32.86,-2.29,-0.588,0.527
-0.0154,0.0864,1.0173,32.91,-2.214,-0.496,0.618
-0.0085,0.0879,1.0095,32.91,-2.237,-0.473,0.687
-0.0112,0.0872,1.0193,32.91,-2.305,-0.282,0.58
-0.0083,0.083,1.0156,32.81,-2.214,-0.481,0.672
-0.0093,0.0859,1.0205,32.91,-2.115,-0.298,0.687
-0.0012,0.0837,1.0161,32.95,-2.122,-0.412,0.618
-0.0093,0.0837,1.021,32.95,-2.443,-0.397,0.611
-0.0105,0.0825,1.022,32.91,-2.275,-0.58,0.603
-0.0068,0.0823,1.0225,33.0,-2.16,-0.252,0.496
-0.0066,0.0767,1.0105,32.91,-2.214,-0.427,0.527
-0.0105,0.0811,1.0281,32.91,-2.252,-0.313,0.832
-0.0117,0.0815,1.02,32.95,-2.328,-0.405,0.588
-0.009,0.0837,1.0208,32.86,-2.374,-0.489,0.542
-0.0112,0.0806,1.0144,32.95,-2.275,-0.359,0.634
-0.0049,0.083,1.0188,32.86,-2.282,-0.366,0.718
-0.0093,0.0884,1.0276,32.91,-2.29,-0.489,0.664
-0.0076,0.082,1.0134,32.81,-2.427,-0.397,0.573
-0.0076,0.0781,1.0247,32.91,-2.229,-0.397,0.794
-0.0054,0.0806,1.0178,32.86,-2.237,-0.397,0.71
-0.0112,0.0859,1.0212,32.95,-2.107,-0.374,0.595
-0.0107,0.0872,1.0266,32.86,-2.168,-0.45,0.748
-0.0125,0.0857,1.0159,33.05,-2.183,-0.458,0.557
-0.0046,0.085,1.0212,33.0,-2.084,-0.305,0.634
-0.0127,0.0842,1.0269,32.81,-2.137,-0.42,0.55
-0.0134,0.0867,1.021,32.95,-2.26,-0.481,0.718
-0.0071,0.0864,1.0215,32.95,-2.366,-0.351,0.588
-0.0107,0.0864,1.0234,32.95,-2.046,-0.389,0.74
-0.0142,0.0813,1.0286,32.95,-1.939,-0.282,0.603
-0.0093,0.083,1.0144,32.91,-2.282,-0.527,0.634
-0.0122,0.0786,1.0247,32.91,-2.099,-0.389,0.695
-0.0144,0.0815,1.0205,32.91,-2.13,-0.397,0.71
-0.0122,0.0847,1.0208,32.91,-2.122,-0.321,0.557
-0.0098,0.0801,1.022,32.91,-2.206,-0.229,0.672
-0.0103,0.0872,1.0198,32.91,-2.252,-0.481,0.565
-0.0107,0.083,1.0188,32.86,-2.275,-0.557,0.534
-0.0088,0.0811,1.0176,32.86,-2.252,-0.504,0.534
-0.0046,0.082,1.0183,32.95,-2.244,-0.397,0.664
-0.0095,0.0798,1.0098,32.86,-2.26,-0.603,0.664
-0.0081,0.0798,1.0205,32.91,-2.153,-0.176,0.664
-0.0076,0.0833,1.012,33.0,-2.26,-0.466,0.687
-0.0083,0.0767,1.0225,32.91,-2.214,-0.344,0.55
-0.0056,0.0815,1.0229,32.86,-2.13,-0.481,0.794
-0.0044,0.0833,1.0281,32.86,-2.061,-0.359,0.702
-0.0154,0.085,1.0205,32.91,-2.29,-0.252,0.58
-0.0085,0.0889,1.0181,32.91,-2.069,-0.405,0.725
-0.0127,0.0806,1.0222,32.91,-2.214,-0.397,0.763
-0.0088,0.0862,1.0269,33.0,-2.168,-0.672,0.634
-0.0098,0.0833,1.0093,32.91,-2.206,-0.42,0.656
-0.011,0.0867,1.0198,32.95,-2.244,-0.366,0.672
-0.0061,0.0833,1.0271,32.86,-2.168,-0.26,0.557
-0.0073,0.0803,1.0212,32.86,-2.328,-0.221,0.672
-0.0071,0.0762,1.0188,32.95,-2.275,-0.435,0.649
-0.0032,0.0852,1.0215,33.0,-2.298,-0.382,0.504
-0.0146,0.0823,1.0198,32.91,-2.183,-0.45,0.611
-0.0117,0.0806,1.03,32.81,-2.015,-0.458,0.443
-0.0093,0.0818,1.0244,33.05,-2.252,-0.405,0.779
-0.0127,0.0818,1.0251,32.95,-2.038,-0.489,0.771
-0.0146,0.0823,1.0227,32.86,-2.191,-0.481,0.725
-0.0039,0.0806,1.0159,32.91,-2.244,-0.519,0.595
-0.0103,0.0842,1.0247,32.91,-2.084,-0.443,0.679
-0.011,0.0845,1.0229,32.81,-2.305,-0.336,0.687
-0.0059,0.0823,1.0247,32.81,-2.191,-0.435,0.534
-0.0127,0.083,1.0217,32.91,-2.137,-0.366,0.595
-0.0144,0.0867,1.0195,32.95,-2.137,-0.55,0.748
-0.0049,0.0791,1.0205,32.86,-2.183,-0.557,0.817
-0.0107,0.0806,1.0198,32.86,-2.115,-0.214,0.565
-0.0063,0.0823,1.0205,32.91,-2.16,-0.351,0.679
-0.0095,0.0823,1.0181,32.91,-2.198,-0.229,0.71
-0.0059,0.0833,1.021,32.91,-2.267,-0.382,0.588
-0.0129,0.0793,1.012,33.0,-2.145,-0.542,0.458
-0.0105,0.0857,1.0186,32.95,-2.076,-0.443,0.534
-0.0151,0.0862,1.031,32.95,-2.092,-0.351,0.649
-0.0146,0.0852,1.0232,32.86,-2.252,-0.489,0.71
-0.0122,0.0806,1.0164,32.91,-2.328,-0.427,0.679
-0.009,0.0828,1.0107,32.91,-2.275,-0.244,0.649
-0.0095,0.083,1.0212,32.91,-2.26,-0.397,0.664
-0.0098,0.0806,1.0215,32.86,-2.107,-0.458,0.687
-0.0127,0.0811,1.0261,32.95,-2.282,-0.542,0.695
-0.0103,0.0842,1.0251,32.91,-2.252,-0.374,0.695
-0.0115,0.0801,1.0205,32.91,-1.969,-0.481,0.656
-0.0098,0.0862,1.0205,32.91,-2.336,-0.26,0.542
-0.0076,0.0864,1.0183,32.86,-2.076,-0.275,0.42
-0.0081,0.0815,1.0195,32.86,-2.115,-0.298,0.427
-0.0125,0.0811,1.0256,32.95,-1.977,-0.435,0.534
-0.0098,0.0837,1.0166,32.91,-2.328,-0.443,0.649
-0.0137,0.0864,1.0273,32.91,-2.084,-0.344,0.656
-0.0137,0.082,1.0312,32.86,-2.115,-0.359,0.672
-0.0093,0.075,1.0295,32.95,-2.275,-0.313,0.649
-0.0164,0.085,1.0168,32.86,-2.328,-0.405,0.588
-0.0085,0.082,1.0225,32.81,-2.137,-0.313,0.626
-0.0122,0.0823,1.0195,32.91,-2.168,-0.557,0.588
-0.0073,0.0891,1.0212,33.05,-2.458,-0.435,0.634
-0.0137,0.0803,1.0247,32.95,-2.321,-0.389,0.634
-0.0095,0.084,1.019,32.91,-2.321,-0.504,0.595
-0.0098,0.0889,1.0242,32.86,-2.29,-0.366,0.733
-0.0012,0.0825,1.0293,32.91,-2.26,-0.389,0.504
-0.0122,0.0835,1.0222,32.91,-2.252,-0.519,0.74
-0.0137,0.0808,1.02,32.91,-2.237,-0.214,0.603
-0.0061,0.0852,1.0161,33.0,-2.198,-0.466,0.656
-0.019,0.084,1.019,32.86,-2.16,-0.282,0.618
-0.0093,0.0803,1.0203,32.95,-2.13,-0.496,0.359
-0.0098,0.0803,1.0244,33.0,-2.237,-0.29,0.481
-0.0076,0.0857,1.0229,32.91,-2.26,-0.405,0.557
-0.0103,0.0837,1.0293,32.81,-2.176,-0.389,0.595
-0.0093,0.0813,1.0273,33.05,-2.13,-0.489,0.687
-0.0081,0.0806,1.0244,32.86,-2.015,-0.405,0.618
-0.0166,0.0813,1.02,32.91,-2.122,-0.45,0.565
-0.0073,0.0845,1.021,32.91,-2.336,-0.397,0.588
-0.0046,0.0774,1.0181,32.91,-2.145,-0.496,0.733
-0.0154,0.0798,1.0256,32.86,-2.221,-0.214,0.649
-0.0068,0.0815,1.0247,32.86,-2.313,-0.427,0.794
-0.0103,0.0889,1.0137,32.86,-2.344,-0.595,0.687
-0.0115,0.0818,1.0208,32.91,-2.229,-0.496,0.573
-0.0093,0.0828,1.0261,32.91,-2.198,-0.382,0.74
-0.0103,0.0801,1.0115,32.86,-2.191,-0.313,0.84
-0.0132,0.0835,1.0156,32.86,-2.229,-0.267,0.519
-0.01,0.0825,1.0166,32.95,-2.321,-0.557,0.649
-0.01,0.0833,1.0188,32.91,-2.145,-0.443,0.649
-0.0059,0.0874,1.022,32.81,-2.031,-0.328,0.534
-0.0061,0.0833,1.0261,32.91,-2.336,-0.374,0.74
-0.0063,0.0874,1.021,32.77,-2.107,-0.344,0.641
-0.0076,0.0723,1.022,32.86,-2.168,-0.45,0.687
-0.0054,0.0874,1.0215,32.86,-2.282,-0.427,0.756
-0.0129,0.0886,1.0237,32.86,-2.198,-0.489,0.557
-0.0105,0.082,1.0193,32.86,-2.092,-0.382,0.618
-0.0117,0.0842,1.0198,33.0,-2.137,-0.328,0.733
-0.0166,0.0857,1.0239,32.81,-2.344,-0.336,0.573
-0.0093,0.0872,1.0164,32.81,-2.344,-0.519,0.71
-0.0068,0.084,1.0264,33.0,-2.145,-0.344,0.473
-0.0073,0.0837,1.0249,32.91,-2.13,-0.305,0.618
-0.0173,0.0894,1.0281,32.91,-2.214,-0.618,0.733
-0.0071,0.0793,1.0203,32.91,-2.244,-0.473,0.603
-0.0093,0.084,1.0303,32.91,-2.305,-0.29,0.634
-0.009,0.0869,1.0205,32.86,-2.214,-0.366,0.496
-0.0093,0.0874,1.0183,32.86,-2.137,-0.405,0.511
-0.0083,0.0847,1.0259,32.86,-2.382,-0.366,0.855
-0.0132,0.0825,1.019,32.91,-2.321,-0.282,0.71
-0.0032,0.082,1.0273,32.91,-2.183,-0.511,0.611
-0.0081,0.0867,1.0183,32.91,-2.145,-0.374,0.664
-0.0137,0.0837,1.0217,32.81,-1.977,-0.45,0.55
-0.0068,0.0872,1.0251,32.86,-2.244,-0.305,0.664
-0.0088,0.0815,1.0239,32.95,-2.26,-0.229,0.588
-0.0093,0.0815,1.0225,32.86,-1.977,-0.511,0.573
-0.0068,0.0869,1.0325,32.91,-2.336,-0.481,0.626
-0.0154,0.0781,1.0295,32.91,-2.168,-0.382,0.672
-0.0061,0.0786,1.0132,32.81,-2.359,-0.405,0.611
-0.0051,0.0862,1.0283,32.95,-2.115,-0.435,0.55
-0.0098,0.0786,1.0227,32.86,-2.107,-0.412,0.664
-0.0144,0.0815,1.0186,32.86,-2.305,-0.504,0.733
-0.011,0.0859,1.0168,32.91,-2.191,-0.282,0.824
-0.0068,0.0876,1.0249,33.0,-2.099,-0.412,0.664
-0.0181,0.0837,1.0154,32.91,-2.168,-0.42,0.565
-0.0129,0.0874,1.0217,32.91,-2.107,-0.244,0.748
-0.012,0.0828,1.0203,32.81,-2.176,-0.298,0.718
-0.009,0.0881,1.0203,32.91,-2.374,-0.321,0.534
-0.0073,0.0842,1.0212,32.91,-2.267,-0.443,0.618
-0.0042,0.0842,1.0188,32.95,-2.115,-0.618,0.641
-0.0088,0.0842,1.0271,32.95,-2.198,-0.427,0.74
-0.0078,0.083,1.0125,32.95,-2.282,-0.313,0.679
-0.012,0.082,1.02,32.81,-2.267,-0.45,0.618
-0.0088,0.0837,1.019,32.91,-2.328,-0.382,0.611
-0.0078,0.0789,1.0188,32.81,-2.206,-0.481,0.58
-0.0137,0.0825,1.0288,32.86,-2.359,-0.26,0.626
-0.0095,0.0798,1.0269,32.86,-1.954,-0.374,0.771
-0.0054,0.0837,1.0193,32.91,-2.183,-0.344,0.679
-0.0122,0.0828,1.0232,32.95,-2.206,-0.435,0.679
-0.0088,0.0796,1.0212,32.91,-2.16,-0.382,0.695
-0.0154,0.0779,1.0247,32.91,-2.191,-0.313,0.626
-0.0039,0.0823,1.0225,32.91,-2.168,-0.366,0.748
-0.011,0.0835,1.0183,32.91,-2.191,-0.359,0.763
-0.0095,0.0835,1.0203,32.95,-2.13,-0.557,0.58
-0.0083,0.0825,1.0168,32.95,-1.992,-0.374,0.527
-0.0115,0.0842,1.0212,32.86,-2.16,-0.481,0.542
-0.0056,0.0845,1.0225,32.86,-2.275,-0.45,0.702
-0.0098,0.0828,1.0269,32.91,-2.374,-0.42,0.664
-0.0137,0.0869,1.0354,33.0,-2.282,-0.695,0.748
-0.0093,0.0808,1.021,32.91,-2.489,-0.397,0.725
-0.0015,0.0845,1.0146,32.81,-1.969,-0.321,0.71
-0.0093,0.0823,1.0303,32.81,-1.641,-0.534,0.817
-0.0659,0.073,1.0386,32.95,0.641,8.435,20.244
-0.0415,0.0796,1.0186,32.86,0.061,2.389,2.214
-0.0283,0.095,1.0183,32.91,-1.206,1.626,4.328
-0.0093,0.0942,1.0256,32.91,2.275,4.0,1.031
-0.0249,0.0981,1.0188,32.91,-2.679,-0.962,0.382
-0.0046,0.0845,1.0242,32.91,-8.328,-10.321,0.298
-0.0088,0.0884,1.0247,32.81,-2.885,-1.58,0.511
-0.0063,0.0842,1.0286,32.81,-2.366,-0.626,0.534
-0.0085,0.0813,1.0164,32.95,-2.443,-0.908,0.832
-0.0051,0.0823,1.0176,32.95,-2.771,-1.084,0.046
-0.0103,0.0842,1.0325,32.95,-2.252,-0.771,-0.137
-0.0088,0.0881,1.0227,32.91,-2.214,-0.565,0.504
-0.0098,0.0801,1.0081,32.91,-2.29,-0.626,0.817
-0.0098,0.0862,1.0242,33.0,-2.412,-0.557,0.748
-0.01,0.0815,1.0154,32.91,-2.351,-0.405,0.427
-0.0137,0.0864,1.0269,32.91,-2.557,-0.504,0.618
-0.0046,0.0813,1.0229,32.95,-2.336,-0.328,0.649
-0.0081,0.083,1.0215,32.86,-2.168,-0.504,0.664
-0.0068,0.0796,1.0181,32.86,-2.397,-0.458,0.756
-0.0024,0.0815,1.0266,32.91,-2.275,-0.328,0.58
-0.0034,0.0845,1.0156,32.91,-1.908,-0.458,0.763
-0.0051,0.0811,1.0327,32.91,-1.573,-0.084,0.634
-0.002,0.0762,1.0239,32.91,-1.359,1.832,2.542
-0.0212,0.0884,1.0215,32.86,4.237,9.069,1.13
-0.0413,0.1169,0.9658,32.86,10.405,18.702,-7.282
-0.2446,0.1204,1.2141,32.86,-1.092,-16.893,-8.893
-0.1257,0.1252,0.958,32.95,0.099,47.649,-7.565
-0.2117,0.125,0.9714,32.95,1.969,12.382,-12.038
-0.1575,0.1033,1.012,33.0,-0.046,-1.626,-7.847
-0.2488,0.1121,1.0076,32.91,-0.519,13.656,2.26
-0.2617,0.113,0.9822,32.91,-3.466,31.817,5.084
-0.3152,0.1199,0.9448,32.95,-0.771,39.466,0.153
-0.4026,0.1189,0.9392,32.86,4.092,35.031,-1.183
-0.3975,0.1396,0.8538,32.86,-2.595,45.466,-2.695
-0.4644,0.1272,0.8394,32.91,-0.038,44.626,-4.947
-0.5215,0.1272,0.7471,32.91,6.702,39.702,-12.595
-0.6016,0.1221,0.7307,32.91,7.305,31.267,-13.435
-0.6301,0.1187,0.75,32.81,0.649,50.802,-8.87
-0.6865,0.1204,0.6331,32.95,6.305,26.58,-12.305
-0.7002,0.0947,0.6536,32.95,14.191,27.573,-13.504
-0.7495,0.116,0.5676,32.95,4.573,42.084,-4.832
-0.8013,0.127,0.4692,32.91,6.008,34.771,-5.863
-0.8423,0.1023,0.4521,32.81,3.076,33.45,-4.275
-0.8562,0.1018,0.4316,32.81,3.313,41.252,-2.344
-0.8599,0.1079,0.3821,32.95,0.878,26.031,-0.122
-0.8733,0.0977,0.3472,32.77,2.351,24.595,-1.527
-0.8936,0.0999,0.3135,32.86,1.023,10.634,-0.672
-0.9033,0.1038,0.3059,32.91,-1.435,5.382,0.618
-0.9043,0.1082,0.293,32.95,-1.901,2.641,0.412
-0.8962,0.1035,0.2866,32.91,-1.832,1.42,0.634
-0.8984,0.1089,0.2964,32.91,-1.649,4.618,0.389
-0.9041,0.1047,0.2803,32.91,0.351,8.595,0.389
-0.905,0.0994,0.2773,32.91,-1.908,1.641,0.435
-0.9124,0.1033,0.2634,33.0,-2.183,-2.099,0.687
-0.9141,0.1018,0.2749,32.86,-2.244,0.023,0.435
-0.9158,0.105,0.2764,32.86,-1.779,1.687,0.634
-0.9141,0.1021,0.2666,32.91,-1.954,-0.397,0.336
-0.9119,0.1021,0.2673,32.81,-2.122,-3.29,0.588
-0.9067,0.103,0.2673,32.91,-2.069,1.229,0.74
-0.9148,0.1062,0.2676,33.05,-1.206,4.504,0.473
-0.9148,0.1018,0.2649,32.86,-1.473,4.702,0.351
-0.9146,0.1033,0.2527,32.95,-2.069,0.771,0.649
-0.9204,0.1064,0.2537,32.91,-2.076,0.008,0.611
-0.9165,0.1096,0.2434,32.91,-2.137,-2.534,0.321
-0.9141,0.0962,0.2581,32.81,-2.321,-0.664,0.565
-0.907,0.0989,0.2493,32.95,-2.153,0.16,0.634
-0.9128,0.1067,0.2495,32.86,-2.328,0.084,0.252
-0.9192,0.1069,0.2397,32.95,-1.977,2.634,0.718
-0.9138,0.0991,0.2434,32.81,-2.214,0.733,0.718
-0.9153,0.1011,0.2429,32.91,-2.183,-1.16,0.595
-0.9221,0.1069,0.2354,33.0,-2.244,1.084,0.672
-0.9148,0.1033,0.2375,32.95,-2.13,2.115,0.725
-0.9224,0.1038,0.2297,32.86,-2.183,2.0,0.718
-0.9204,0.104,0.2258,32.81,-2.191,1.366,0.603
-0.9175,0.1013,0.2288,32.91,-2.107,1.16,0.779
-0.9182,0.1021,0.2336,32.91,-2.038,2.817,0.611
-0.9229,0.1016,0.21,33.0,-1.527,1.412,0.466
-0.9246,0.1008,0.2175,32.81,-1.481,2.611,0.412
-0.9207,0.1042,0.2227,32.86,-2.191,-2.214,0.733
-0.925,0.1038,0.2358,32.95,-2.321,-10.351,0.977
-0.9036,0.1123,0.2607,32.86,-2.42,-25.656,0.977
-0.8962,0.1033,0.3232,32.81,-2.374,-42.405,1.061
-0.8728,0.1077,0.4148,32.91,-2.229,-76.221,1.008
-0.7993,0.1016,0.5303,32.91,-2.168,-110.626,1.565
-0.6807,0.1074,0.6804,32.91,-2.351,-98.855,0.137
-0.5518,0.0972,0.8062,32.95,-3.763,-116.588,2.214
-0.4097,0.1094,0.8984,32.86,-2.229,-96.641,-0.687
-0.2839,0.1104,0.9463,32.86,-6.809,-65.771,9.122
-0.2117,0.1047,0.9863,32.91,-2.244,-41.107,1.26
-0.1704,0.1011,1.0129,32.91,-4.031,-41.634,7.45
-0.085,0.105,1.0037,32.91,-3.038,-13.504,5.29
-0.0886,0.0833,1.0034,32.81,-3.145,1.695,13.115
-0.134,0.127,1.0112,32.91,-5.115,9.145,25.71
-0.1187,0.0884,1.0286,32.81,-4.924,-2.557,23.55
-0.1035,0.1086,1.0125,33.0,-5.641,-12.237,21.13
-0.0317,0.1011,1.0447,32.86,-5.702,-8.069,20.924
-0.0249,0.0671,1.1697,32.77,-3.771,-0.832,6.336
-0.043,0.137,1.0491,32.95,-2.328,-4.466,7.023
-0.0413,0.0989,1.0295,33.0,-3.435,-0.496,0.275
-0.0325,0.0945,1.021,32.91,-4.641,-4.015,0.252
-0.0444,0.0996,1.0286,32.91,-6.443,-8.0,0.359
-0.031,0.0925,1.0261,32.86,-10.237,-14.84,-0.038
-0.0073,0.073,1.053,32.86,-6.702,-6.885,0.275
-0.0063,0.0779,1.021,32.91,-2.336,-0.473,0.588
-0.0061,0.0825,1.0195,32.77,-2.137,0.053,0.74
-0.0129,0.0837,1.0186,32.91,-2.176,-0.244,0.725
-0.0078,0.0793,1.0168,32.81,-2.038,-0.298,0.71
-0.0098,0.0835,1.0291,32.91,-2.092,-0.282,0.672
-0.0002,0.0864,1.0254,32.86,-2.244,-0.42,0.618
-0.009,0.0828,1.0269,32.95,-2.168,-0.466,0.611
-0.01,0.084,1.0259,32.95,-2.137,-0.198,0.542
-0.0117,0.0847,1.0239,33.0,-2.115,-0.336,0.664
-0.0049,0.0852,1.0212,32.91,-2.359,-0.214,0.71
-0.0029,0.0835,1.0193,32.91,-2.214,-0.397,0.725
-0.0083,0.0818,1.0159,32.91,-2.26,-0.389,0.656
-0.0066,0.0837,1.019,32.91,-1.977,-0.298,0.794
-0.0063,0.0876,1.0156,32.95,-2.122,-0.328,0.641
-0.0034,0.0859,1.0205,32.86,-2.069,-0.267,0.565
-0.0042,0.0762,1.0193,32.86,-2.038,-0.298,0.634
-0.0107,0.0833,1.0178,32.95,-2.305,-0.206,0.702
-0.0017,0.0854,1.0247,32.91,-2.45,-0.359,0.473
-0.0071,0.0857,1.0225,33.0,-2.176,-0.29,0.71
-0.0044,0.083,1.0215,32.91,-2.168,-0.298,0.588
-0.0112,0.0801,1.022,32.86,-2.305,-0.305,0.626
-0.009,0.0808,1.0312,32.86,-2.153,-0.26,0.687
-0.0085,0.0869,1.0144,32.95,-2.183,-0.275,0.718
-0.0088,0.0815,1.022,33.0,-2.191,-0.427,0.603
-0.0081,0.0852,1.0269,32.81,-2.282,-0.282,0.595
-0.0127,0.083,1.0186,32.95,-2.176,-0.649,0.71
-0.0076,0.0769,1.0249,32.95,-2.176,-0.267,0.725
-0.011,0.0881,1.0227,32.95,-2.443,-0.527,0.634
-0.0095,0.0903,1.0269,32.91,-2.076,-0.473,0.679
-0.0095,0.0835,1.0298,32.91,-2.176,-0.336,0.565
-0.0181,0.0894,1.0276,32.95,-1.939,-0.519,0.771
-0.0046,0.0828,1.0188,32.86,-2.298,-0.313,0.634
-0.01,0.0791,1.0198,32.95,-2.206,-0.366,0.863
-0.0044,0.0833,1.0208,32.91,-2.389,-0.336,0.695
-0.0027,0.0847,1.0181,32.81,-2.008,-0.496,0.618
-0.0151,0.082,1.0171,32.86,-2.16,-0.244,0.641
-0.0112,0.0901,1.0154,32.95,-2.099,-0.382,0.725
-0.0093,0.0796,1.022,32.91,-2.252,-0.336,0.45
-0.0076,0.0818,1.0195,32.91,-2.13,-0.443,0.595
-0.0059,0.0806,1.0183,32.91,-2.183,-0.603,0.649
-0.0088,0.0823,1.0198,32.86,-2.145,-0.42,0.748
-0.0059,0.0862,1.0269,32.86,-2.29,-0.389,0.779
-0.0122,0.0833,1.0203,32.95,-2.069,-0.244,0.527
-0.012,0.0793,1.032,32.91,-2.366,-0.435,0.702
-0.0083,0.0889,1.019,33.0,-2.183,-0.519,0.58
-0.0105,0.0806,1.0166,32.86,-1.992,-0.282,0.595
-0.0093,0.0879,1.0276,32.91,-2.214,-0.466,0.748
-0.012,0.0833,1.0203,32.86,-2.153,-0.397,0.473
-0.0081,0.0823,1.0295,32.91,-2.244,-0.397,0.611
-0.0085,0.0762,1.0222,32.91,-2.183,-0.405,0.679
-0.0068,0.0859,1.0188,32.95,-2.206,-0.344,0.656
-0.009,0.0837,1.0144,32.95,-1.985,-0.573,0.427
-0.0129,0.0867,1.0166,32.95,-2.092,-0.336,0.519
-0.0085,0.0847,1.0254,32.91,-2.351,-0.267,0.618
-0.012,0.0811,1.0269,32.91,-2.275,-0.511,0.641
-0.0071,0.0798,1.0227,32.95,-2.115,-0.427,0.626
-0.0061,0.0862,1.0217,32.95,-2.229,-0.534,0.641
-0.0042,0.084,1.0203,32.91,-2.229,-0.298,0.786
-0.01,0.082,1.0203,32.91,-2.221,-0.321,0.756
-0.0144,0.0872,1.0288,32.91,-2.206,-0.427,0.817
-0.0054,0.0837,1.0286,32.86,-2.214,-0.229,0.611
-0.01,0.0835,1.0242,32.86,-2.023,-0.344,0.58
-0.012,0.0825,1.0229,32.77,-2.122,-0.412,0.481
-0.0122,0.0801,1.0134,32.91,-2.244,-0.489,0.702
-0.0085,0.0828,1.022,32.91,-2.198,-0.321,0.641
-0.0046,0.085,1.0286,32.95,-2.267,-0.466,0.664
-0.0103,0.0815,1.02,32.95,-2.298,-0.427,0.656
-0.0088,0.084,1.0259,32.95,-2.153,-0.473,0.427
-0.0127,0.0806,1.0166,32.91,-2.282,-0.26,0.496
-0.0073,0.0884,1.0295,32.91,-2.198,-0.504,0.679
-0.0144,0.0847,1.0149,32.91,-2.298,-0.206,0.718
-0.0024,0.0842,1.0208,32.91,-2.16,-0.427,0.634
-0.0022,0.0908,1.0188,32.95,-2.29,-0.458,0.649
-0.0117,0.0876,1.0247,32.95,-2.313,-0.328,0.542
-0.0056,0.0845,1.0266,32.91,-2.313,-0.382,0.74
-0.0032,0.0884,1.0298,32.91,-2.42,-0.45,0.603
-0.0112,0.0876,1.0205,32.91,-2.275,-0.473,0.679
-0.0061,0.0869,1.0164,32.86,-2.183,-0.435,0.641
-0.0117,0.0857,1.0178,32.95,-2.328,-0.412,0.618
-0.0112,0.082,1.02,32.81,-2.069,-0.366,0.397
-0.0054,0.0806,1.0149,32.91,-2.328,-0.298,0.748
-0.0049,0.0908,1.0315,32.91,-2.076,-0.42,0.954
-0.01,0.0833,1.0156,32.86,-2.267,-0.458,0.702
-0.0129,0.0842,1.0264,32.86,-2.092,-0.443,0.679
-0.0054,0.0798,1.0271,32.86,-2.29,-0.42,0.557
-0.0046,0.0791,1.0193,32.91,-2.366,-0.427,0.672
-0.011,0.0828,1.0186,32.91,-2.267,-0.496,0.733
-0.0027,0.0833,1.0132,32.86,-2.176,-0.405,0.74
-0.0027,0.0806,1.0161,32.95,-2.313,-0.191,0.58
-0.0068,0.0876,1.0234,32.95,-2.221,-0.313,0.641
-0.011,0.083,1.0383,32.91,-2.023,-0.405,0.534
-0.0042,0.0781,1.0212,32.91,-2.198,-0.511,0.718
-0.0095,0.0847,1.0234,32.91,-2.168,-0.481,0.679
-0.011,0.0823,1.0259,32.91,-2.26,-0.443,0.802
-0.0076,0.0884,1.0325,32.86,-2.023,-0.42,0.55
-0.0083,0.0823,1.0205,33.05,-2.198,-0.504,0.496
-0.0083,0.0789,1.022,32.91,-2.176,-0.496,0.611
-0.0178,0.0806,1.0203,32.91,-2.214,-0.282,0.573
0.0012,0.0874,1.0249,32.86,-2.214,-0.45,0.611
-0.0066,0.0847,1.02,32.86,-2.168,-0.29,0.695
-0.0093,0.0825,1.0273,32.86,-2.115,-0.191,0.611
-0.0149,0.0815,1.0159,32.91,-2.313,-0.42,0.679
-0.0112,0.0825,1.0164,32.91,-2.275,-0.237,0.588
-0.0125,0.0854,1.0149,32.77,-2.099,-0.641,0.718
-0.0081,0.0896,1.0193,32.86,-2.16,-0.321,0.794
-0.0032,0.0881,1.0205,32.86,-2.168,-0.618,0.55
-0.0073,0.084,1.0232,32.91,-2.237,-0.466,0.733
-0.0088,0.0881,1.0188,32.81,-2.26,-0.412,0.634
-0.01,0.0762,1.0229,32.91,-2.214,-0.458,0.557
-0.0032,0.0798,1.0271,32.86,-2.229,-0.427,0.664
-0.0068,0.0837,1.0212,32.95,-2.321,-0.496,0.672
-0.0076,0.0779,1.0234,32.86,-2.115,-0.45,0.611
-0.0168,0.0845,1.0212,32.91,-2.099,-0.42,0.679
-0.0088,0.082,1.0225,32.91,-2.176,-0.557,0.84
-0.0068,0.0884,1.0227,33.0,-2.321,-0.511,0.58
-0.0066,0.0833,1.0239,32.91,-2.198,-0.458,0.58
-0.0073,0.0845,1.0171,32.81,-2.298,-0.298,0.679
-0.0059,0.0879,1.0288,32.95,-2.282,-0.405,0.672
-0.0051,0.0867,1.0193,32.86,-2.305,-0.611,0.626
-0.0117,0.082,1.0212,32.95,-2.359,-0.664,0.718
-0.0081,0.0776,1.0312,32.91,-2.29,-0.328,0.672
-0.0068,0.0791,1.0349,32.91,-2.084,-0.153,0.557
-0.0029,0.0864,1.0205,32.86,-2.313,-0.366,0.504
-0.0081,0.0864,1.02,32.95,-2.328,-0.328,0.618
-0.0083,0.0874,1.0171,32.86,-2.198,-0.481,0.756
-0.012,0.0811,1.0247,32.91,-2.214,-0.382,0.718
-0.0088,0.0857,1.0286,32.91,-2.221,-0.427,0.573
-0.012,0.0854,1.0269,32.91,-2.053,-0.626,0.496
-0.0002,0.0852,1.0239,32.91,-2.16,-0.313,0.664
-0.0107,0.0872,1.0168,32.86,-2.351,-0.153,0.718
-0.0125,0.082,1.0317,32.95,-2.305,-0.397,0.58
-0.0127,0.0857,1.0208,32.95,-2.397,-0.275,0.527
-0.0066,0.0852,1.0151,32.81,-2.336,-0.359,0.679
-0.0034,0.0842,1.022,32.91,-2.214,-0.412,0.565
-0.0051,0.0894,1.0205,33.0,-2.153,-0.458,0.679
-0.0088,0.0806,1.0098,33.0,-2.237,-0.42,0.595
-0.0046,0.0879,1.0198,32.95,-2.229,-0.336,0.618
-0.0076,0.0789,1.0322,32.86,-2.069,-0.58,0.649
-0.0083,0.0791,1.0305,32.91,-2.137,-0.427,0.557
-0.0071,0.0894,1.0288,32.81,-2.313,-0.359,0.55
-0.012,0.085,1.0234,32.91,-2.336,-0.359,0.542
-0.0063,0.0864,1.0242,32.91,-2.206,-0.221,0.557
-0.0139,0.0808,1.0171,32.95,-2.252,-0.389,0.305
-0.0137,0.0825,1.0208,32.95,-2.26,-0.443,0.71
-0.0081,0.082,1.0156,32.86,-2.298,-0.405,0.634
-0.0134,0.0825,1.0205,32.91,-2.099,-0.29,0.565
-0.0037,0.0857,1.0198,32.91,-2.305,-0.45,0.519
-0.0132,0.0862,1.0234,32.91,-2.252,-0.55,0.58
-0.0107,0.0864,1.0256,32.95,-2.244,-0.328,0.626
-0.0049,0.0811,1.0266,32.86,-2.038,-0.336,0.649
0.0007,0.0862,1.0273,32.86,-2.275,-0.382,0.588
-0.0054,0.0828,1.0291,32.91,-2.229,-0.328,0.733
-0.0117,0.0825,1.0178,32.81,-2.206,-0.382,0.679
-0.0085,0.0833,1.0139,33.0,-2.191,-0.435,0.534
-0.009,0.0845,1.022,33.0,-2.214,-0.382,0.702
-0.0037,0.0879,1.0225,32.86,-2.382,-0.412,0.763
-0.0017,0.0796,1.0266,32.86,-2.298,-0.45,0.664
-0.0137,0.0854,1.0271,32.86,-2.168,-0.427,0.733
-0.0076,0.0789,1.0149,32.86,-2.099,-0.282,0.84
-0.0061,0.0791,1.0227,32.91,-2.015,-0.473,0.725
-0.0134,0.0837,1.0225,32.81,-2.115,-0.206,0.687
-0.0132,0.0825,1.0193,32.81,-2.153,-0.511,0.603
-0.0112,0.0806,1.0227,32.81,-2.252,-0.336,0.557
-0.0115,0.0854,1.0217,32.81,-2.237,-0.344,0.611
-0.0076,0.0854,1.0176,32.95,-2.359,-0.557,0.74
-0.0125,0.0886,1.0193,32.86,-2.198,-0.618,0.695
-0.0071,0.0818,1.0139,32.81,-2.023,-0.366,0.74
-0.0073,0.0808,1.0203,33.0,-2.252,-0.473,0.496
-0.0049,0.0879,1.0271,33.0,-1.985,-0.336,0.626
-0.0117,0.0879,1.0166,32.81,-2.191,-0.458,0.649
-0.0088,0.0901,1.0198,32.91,-2.237,-0.328,0.603
-0.0134,0.0862,1.0193,32.95,-2.282,-0.336,0.695
-0.0034,0.0808,1.0244,32.95,-2.229,-0.328,0.519
-0.0071,0.0857,1.0129,32.95,-2.344,-0.489,0.748
-0.0081,0.0825,1.0227,32.86,-2.214,-0.336,0.588
-0.0083,0.0823,1.0234,32.86,-2.107,-0.26,0.634
-0.0098,0.0808,1.0237,32.86,-2.359,-0.489,0.679
-0.0071,0.0898,1.0256,32.91,-2.275,-0.603,0.427
-0.0098,0.0867,1.0256,32.91,-2.168,-0.511,0.771
-0.009,0.0886,1.0249,32.91,-2.275,-0.405,0.687
-0.0127,0.0859,1.0242,32.91,-2.145,-0.466,0.519
-0.0122,0.085,1.0259,32.91,-2.107,-0.298,0.641
-0.0134,0.0854,1.022,32.86,-2.015,-0.405,0.595
-0.0076,0.0818,1.0315,32.95,-2.206,-0.382,0.687
-0.0103,0.0808,1.0339,32.95,-2.122,-0.435,0.763
-0.0112,0.0779,1.0254,32.81,-2.366,-0.519,0.565
-0.0022,0.0811,1.0247,32.91,-2.282,-0.344,0.733
-0.0039,0.0872,1.0227,32.81,-2.137,-0.328,0.511
-0.0093,0.0789,1.0227,32.91,-2.344,-0.45,0.527
-0.0046,0.084,1.0283,32.86,-2.115,-0.557,0.664
-0.0137,0.0886,1.0195,32.86,-2.336,-0.412,0.542
-0.0078,0.0796,1.0232,32.95,-2.344,-0.458,0.565
-0.0159,0.0867,1.033,32.91,-2.198,-0.71,0.779
-0.0078,0.0806,1.0134,32.91,-2.099,-0.282,0.809
-0.0107,0.0801,1.0215,32.91,-2.214,-0.305,0.626
-0.0073,0.0833,1.0281,32.86,-2.229,-0.481,0.626
-0.0034,0.0815,1.0186,32.91,-2.16,-0.496,0.802
-0.0044,0.0854,1.0198,32.91,-2.084,-0.336,0.725
-0.0088,0.085,1.0261,32.91,-2.206,-0.328,0.649
-0.0085,0.0828,1.0203,32.91,-2.061,-0.466,0.618
-0.0054,0.0842,1.0278,32.95,-2.244,-0.595,0.511
-0.0083,0.0806,1.0251,32.86,-2.13,-0.313,0.649
-0.01,0.0847,1.0247,32.91,-2.137,-0.458,0.718
-0.0083,0.082,1.019,32.91,-2.137,-0.466,0.71
-0.0024,0.0774,1.0125,32.86,-2.382,-0.466,0.832
-0.0039,0.0835,1.0195,32.81,-2.282,-0.267,0.542
-0.0137,0.0872,1.0168,32.81,-2.16,-0.427,0.603
-0.0105,0.0806,1.0215,33.0,-2.153,-0.45,0.756
-0.0117,0.0845,1.0232,32.91,-2.16,-0.504,0.847
-0.0117,0.0779,1.0188,33.0,-2.069,-0.534,0.519
-0.0046,0.0793,1.0217,32.95,-2.275,-0.496,0.832
-0.0105,0.0806,1.0281,32.86,-2.397,-0.229,0.656
-0.0117,0.0842,1.0227,32.86,-2.16,-0.412,0.504
-0.0068,0.0835,1.0134,32.81,-2.061,-0.389,0.718
-0.0098,0.0803,1.0215,32.81,-2.198,-0.458,0.435
-0.0066,0.0874,1.022,32.95,-2.061,-0.397,0.618
-0.0093,0.0835,1.0298,32.86,-2.198,-0.382,0.634
-0.0085,0.0791,1.0183,32.86,-2.344,-0.359,0.45
-0.012,0.0796,1.0239,32.81,-2.221,-0.328,0.71
-0.012,0.0845,1.0276,32.81,-2.061,-0.542,0.71
-0.0083,0.0872,1.0208,33.0,-2.344,-0.252,0.634
-0.0122,0.0811,1.0176,32.91,-2.038,-0.534,0.626
-0.0076,0.0801,1.0227,32.86,-2.275,-0.557,0.55
-0.0059,0.0854,1.0227,32.86,-2.26,-0.328,0.695
-0.0088,0.0825,1.0254,32.95,-2.153,-0.412,0.466
-0.0134,0.0881,1.0205,32.86,-2.092,-0.382,0.84
-0.0139,0.0894,1.0273,32.91,-2.206,-0.458,0.656
-0.0122,0.084,1.0303,32.81,-2.069,-0.298,0.618
-0.0129,0.0833,1.0264,32.91,-1.954,-0.618,0.603
-0.011,0.0803,1.0203,32.95,-2.168,-0.244,0.527
-0.0149,0.0867,1.019,32.86,-2.198,-0.305,0.565
-0.0093,0.0813,1.0203,32.91,-2.137,-0.374,0.763
-0.009,0.0867,1.0168,32.91,-2.084,-0.435,0.595
-0.0129,0.0867,1.0247,32.81,-2.26,-0.267,0.74
-0.0085,0.085,1.0261,32.91,-2.168,-0.565,0.771
-0.0061,0.0769,1.0134,32.95,-1.992,-0.313,0.641
-0.0142,0.0808,1.0227,32.95,-2.351,-0.397,0.687
-0.0078,0.0779,1.0208,32.81,-2.115,-0.489,0.672
-0.0071,0.0803,1.0222,32.91,-2.137,-0.351,0.534
-0.01,0.0847,1.0276,32.86,-2.267,-0.374,0.527
-0.0105,0.0837,1.0178,33.0,-2.374,-0.237,0.557
-0.0122,0.0879,1.0266,32.81,-2.298,-0.26,0.489
-0.0134,0.0854,1.0283,32.91,-2.145,-0.405,0.618
-0.0051,0.0854,1.0322,32.77,-2.13,-0.481,0.687
-0.0049,0.0842,1.0269,32.86,-2.26,-0.634,0.542
-0.0115,0.0847,1.0227,32.81,-1.969,-0.244,0.748
-0.0083,0.0867,1.012,33.0,-2.038,-0.374,0.511
-0.0037,0.0823,1.0198,32.81,-2.153,-0.382,0.687
-0.0095,0.084,1.0232,32.81,-2.206,-0.542,0.603
-0.0032,0.0796,1.0225,32.86,-2.107,-0.237,0.595
-0.0063,0.0811,1.0186,32.86,-2.153,-0.351,0.725
-0.0093,0.0852,1.0266,32.91,-2.275,-0.45,0.603
-0.0127,0.0886,1.0264,32.91,-2.084,-0.496,0.702
-0.0161,0.0771,1.0176,33.0,-2.168,-0.519,0.672
-0.0073,0.0835,1.0242,32.86,-2.069,-0.58,0.634
-0.0071,0.0881,1.0181,32.86,-2.252,-0.58,0.527
-0.0103,0.0784,1.019,32.86,-2.313,-0.237,0.672
-0.0073,0.0872,1.0215,32.81,-2.244,-0.534,0.664
-0.0149,0.0823,1.0242,33.0,-2.26,-0.466,0.603
-0.011,0.085,1.0112,32.91,-2.26,-0.412,0.702
-0.01,0.0806,1.0273,32.95,-2.16,-0.496,0.626
-0.0034,0.0823,1.0186,32.95,-2.237,-0.389,0.679
-0.0115,0.082,1.022,32.91,-2.053,-0.351,0.641
-0.0103,0.0884,1.0251,32.81,-2.282,-0.45,0.588
-0.0085,0.0837,1.0176,32.81,-2.214,-0.122,0.71
-0.01,0.0847,1.0283,32.86,-2.183,-0.466,0.466
-0.0073,0.0837,1.0115,32.95,-2.237,-0.374,0.74
-0.0105,0.0852,1.0273,32.86,-2.046,-0.351,0.649
-0.0093,0.0808,1.0298,32.81,-2.321,-0.351,0.756
-0.0066,0.0845,1.0234,32.81,-2.435,-0.405,0.748
-0.0071,0.0784,1.0173,32.81,-2.221,-0.496,0.634
-0.0115,0.0811,1.021,32.86,-2.244,-0.397,0.565
-0.0134,0.0864,1.02,32.95,-2.176,-0.412,0.557
-0.0127,0.0884,1.0234,32.81,-2.191,-0.511,0.573
-0.0073,0.0786,1.0256,32.81,-2.053,-0.26,0.626
-0.009,0.0854,1.0215,32.91,-2.13,-0.397,0.656
-0.0034,0.0825,1.0168,32.91,-2.176,-0.42,0.542
-0.0107,0.0867,1.0249,32.91,-2.122,-0.382,0.634
-0.0083,0.0811,1.0193,32.86,-2.031,-0.58,0.618
-0.0085,0.0779,1.0215,32.86,-2.084,-0.344,0.664
-0.001,0.0808,1.0244,32.95,-1.664,-0.015,0.695
-0.0129,0.0906,1.0293,32.95,-2.038,-0.176,0.618
-0.0066,0.0825,1.0012,32.86,-2.221,-0.527,0.649
-0.0083,0.085,1.0159,32.77,-2.389,-0.511,0.58
-0.0012,0.083,0.9727,32.95,-2.588,-0.718,0.687
-0.0073,0.0913,1.02,32.91,-2.137,-0.183,0.756
-0.0107,0.0828,1.0164,32.91,-2.481,-0.58,0.511
-0.0151,0.0869,1.0308,32.91,-2.237,-0.389,0.641
-0.0076,0.0771,1.0242,32.91,-2.153,-0.565,0.634
-0.0142,0.0874,1.0181,32.81,-2.168,-0.519,0.649
-0.0115,0.0874,1.0239,32.91,-2.26,-0.473,0.649
-0.0083,0.0857,1.0342,32.91,-1.779,0.13,0.809
-0.0103,0.0881,1.0273,33.0,-2.42,-0.725,0.832
-0.0027,0.0837,1.0146,32.86,-2.344,-0.374,0.489
-0.0117,0.0903,1.0193,32.86,-2.046,-0.328,0.71
-0.0076,0.0867,1.0076,32.86,-2.344,-0.099,0.679
-0.0107,0.0845,1.0229,32.86,-2.237,-0.458,0.84
-0.0039,0.0916,0.9907,32.86,-2.664,-0.42,0.542
-0.0076,0.0913,0.9961,32.86,-2.321,-0.282,0.71
-0.012,0.0881,1.0173,32.86,-2.084,-0.336,0.626
-0.0129,0.0874,1.0154,32.86,-2.252,-0.481,0.71
-0.0042,0.0806,1.0076,32.86,-1.977,-0.573,0.626
-0.0144,0.0859,1.0249,32.81,-2.26,-0.466,0.687
-0.0085,0.0828,1.0222,32.91,-2.061,-0.336,0.603
-0.0115,0.0825,1.0317,32.81,-2.053,-0.389,0.74
-0.0093,0.0872,1.0254,32.91,-2.214,-0.313,0.611
-0.0098,0.0876,1.0254,32.81,-2.214,-0.328,0.58
-0.0115,0.0867,1.0242,32.91,-2.275,-0.557,0.603
-0.0088,0.0811,1.0222,32.81,-2.168,-0.389,0.74
-0.0117,0.0874,1.0166,32.81,-2.267,-0.542,0.702
-0.0149,0.0872,1.0056,32.91,-2.321,-0.435,0.649
-0.0081,0.0891,1.0217,32.95,-2.298,-0.511,0.595
-0.0159,0.0981,1.0281,32.95,-2.427,-0.542,0.664
-0.0022,0.0879,1.0266,32.86,-2.359,-0.328,0.679
-0.0044,0.084,1.0117,32.86,-2.046,-0.282,0.534
-0.0142,0.0825,1.0298,32.95,-2.344,-0.252,0.641
-0.0059,0.0789,1.0134,33.0,-2.298,-0.405,0.496
-0.009,0.0842,1.0168,32.91,-2.229,-0.267,0.458
-0.012,0.082,1.0193,32.81,-2.168,-0.321,0.718
-0.0129,0.0879,1.0198,32.91,-2.305,-0.458,0.481
-0.0085,0.0823,1.0166,32.91,-2.229,-0.382,0.489
-0.009,0.0862,1.0203,32.86,-2.099,-0.382,0.618
-0.0083,0.0796,1.0278,32.86,-2.183,-0.458,0.496
-0.0098,0.0811,1.02,32.86,-2.191,-0.26,0.595
-0.0029,0.0874,1.0232,32.86,-2.191,-0.351,0.618
-0.0122,0.0879,1.0215,32.91,-2.198,-0.458,0.611
-0.0112,0.0859,1.0251,32.95,-2.107,-0.511,0.534
-0.009,0.0847,1.0205,32.91,-2.26,-0.443,0.527
-0.0156,0.083,1.0264,32.91,-2.244,-0.458,0.603
-0.009,0.0825,1.0173,32.91,-2.099,-0.443,0.687
-0.01,0.0901,1.0159,32.91,-2.244,-0.466,0.626
-0.0029,0.0845,1.0193,32.86,-2.092,-0.298,0.588
-0.0129,0.084,1.0112,32.77,-2.176,-0.26,0.519
-0.0071,0.082,1.011,32.86,-2.137,-0.427,0.71
-0.0081,0.0859,1.0305,32.86,-2.137,-0.458,0.511
-0.0132,0.0803,1.0212,32.86,-2.053,-0.298,0.595
-0.0117,0.0825,1.0146,32.95,-2.282,-0.351,0.664
-0.0081,0.0859,1.0161,32.91,-2.183,-0.374,0.496
-0.0098,0.0876,1.0212,32.91,-1.893,-0.466,0.702
-0.0056,0.0869,1.0129,32.91,-2.13,-0.489,0.679
-0.0076,0.0852,1.0212,32.81,-2.29,-0.344,0.756
-0.0122,0.0896,1.02,32.91,-2.176,-0.412,0.656
-0.0117,0.0735,1.0125,32.91,-2.229,-0.214,0.542
-0.012,0.0867,1.0115,32.91,-2.122,-0.511,0.763
-0.0083,0.0833,1.0269,32.91,-2.115,-0.298,0.573
-0.0107,0.0874,1.0222,32.81,-2.221,-0.473,0.58
-0.0066,0.0811,1.0249,32.91,-2.206,-0.252,0.809
-0.0125,0.0791,1.0278,32.91,-2.26,-0.29,0.511
-0.012,0.0857,1.019,32.95,-2.198,-0.344,0.634
-0.0112,0.0862,1.0203,32.86,-2.168,-0.481,0.71
-0.0066,0.0806,1.0227,32.86,-2.221,-0.42,0.679
-0.0107,0.0884,1.0264,32.86,-2.252,-0.603,0.702
-0.0054,0.0857,1.0173,32.91,-2.305,-0.405,0.641
-0.0078,0.0894,1.0256,32.86,-2.168,-0.427,0.557
-0.0105,0.0854,1.0173,32.91,-2.328,-0.153,0.656
-0.0059,0.0859,1.0237,32.91,-2.099,-0.519,0.618
-0.0181,0.0879,1.0259,32.91,-2.145,-0.603,0.702
-0.0056,0.0894,1.0178,32.81,-1.916,-0.527,0.702
-0.0068,0.0869,1.0254,32.81,-2.061,-0.534,0.611
-0.0076,0.0869,1.0227,32.86,-2.26,-0.527,0.466
-0.0178,0.0857,1.0256,32.95,-2.267,-0.435,0.71
-0.0093,0.0847,1.0271,32.86,-2.176,-0.45,0.74
-0.009,0.082,1.022,32.91,-2.26,-0.527,0.595
-0.0129,0.0852,1.0188,32.81,-2.237,-0.305,0.786
-0.0129,0.0857,1.0188,32.91,-2.305,-0.504,0.832
-0.0151,0.0825,1.0281,32.81,-2.168,-0.435,0.649
-0.0105,0.0894,1.0247,32.95,-2.336,-0.191,0.656
-0.0115,0.082,1.0229,32.86,-2.099,-0.427,0.527
-0.011,0.0847,1.0178,32.86,-2.0,-0.344,0.595
-0.0142,0.0811,1.0251,32.91,-2.0,-0.511,0.718
-0.009,0.0891,1.0198,32.91,-2.237,-0.313,0.603
-0.0073,0.0801,1.0173,32.81,-2.122,-0.42,0.611
-0.0117,0.0847,1.0193,32.81,-2.145,-0.519,0.603
-0.0015,0.0889,1.0232,32.81,-2.206,-0.298,0.649
-0.0115,0.0842,1.0256,32.86,-2.214,-0.534,0.672
-0.0132,0.0803,1.0161,32.95,-2.153,-0.588,0.412
-0.0095,0.0854,1.0244,32.86,-2.221,-0.382,0.573
-0.0134,0.084,1.0256,32.86,-2.145,-0.534,0.618
-0.0098,0.0833,1.0198,32.91,-2.313,-0.496,0.588
-0.0122,0.0864,1.0208,32.91,-2.305,-0.458,0.695
-0.0085,0.0847,1.019,32.91,-2.229,-0.443,0.588
-0.0168,0.0825,1.0229,32.86,-2.282,-0.313,0.679
-0.0115,0.0825,1.0215,32.86,-2.252,-0.458,0.603
-0.0117,0.0837,1.0142,32.95,-2.137,-0.618,0.511
-0.0098,0.0852,1.0208,32.81,-2.321,-0.344,0.718
-0.0107,0.0845,1.0239,32.81,-2.183,-0.412,0.656
-0.0137,0.0857,1.0154,33.0,-2.176,-0.412,0.725
-0.0046,0.0881,1.0266,32.91,-2.267,-0.389,0.664
-0.0129,0.0872,1.0247,33.0,-2.26,-0.328,0.496
-0.0093,0.084,1.0273,32.95,-2.191,-0.351,0.634
-0.0107,0.0825,1.0264,32.86,-2.313,-0.519,0.672
-0.0105,0.0859,1.0239,32.86,-2.122,-0.435,0.695
-0.0061,0.0815,1.0256,32.95,-2.099,-0.214,0.672
-0.0198,0.0869,1.0129,32.86,-2.252,-0.389,0.588
-0.0085,0.0818,1.0295,32.77,-2.336,-0.305,0.603
-0.0093,0.0842,1.019,32.77,-2.206,-0.412,0.603
-0.0088,0.0867,1.0261,32.86,-1.954,-0.473,0.634
-0.0076,0.0833,1.0266,32.86,-2.198,-0.649,0.634
-0.0107,0.0876,1.0134,32.91,-2.168,-0.298,0.695
-0.0151,0.0857,1.0269,32.81,-2.237,-0.458,0.557
-0.0088,0.0872,1.0234,32.91,-2.206,-0.366,0.679
-0.0117,0.0825,1.0112,32.91,-2.275,-0.435,0.611
-0.0098,0.0796,1.0239,33.0,-2.26,-0.328,0.756
-0.0105,0.0869,1.0256,32.81,-2.198,-0.473,0.832
-0.0071,0.083,1.0195,32.95,-2.305,-0.366,0.679
-0.0107,0.0889,1.0208,32.86,-2.275,-0.511,0.519
-0.0112,0.0847,1.02,32.86,-2.099,-0.542,0.58
-0.0122,0.0798,1.0269,32.86,-2.092,-0.321,0.588
-0.009,0.0833,1.0305,32.86,-2.198,-0.511,0.84
-0.0129,0.082,1.0239,32.91,-2.153,-0.267,0.45
-0.0134,0.0874,1.0234,32.77,-2.298,-0.305,0.679
-0.0071,0.0903,1.03,32.91,-2.145,-0.443,0.641
-0.0081,0.092,1.0188,32.91,-2.275,-0.527,0.641
-0.0068,0.0837,1.0142,32.81,-2.344,-0.374,0.557
-0.0129,0.085,1.0149,32.91,-2.183,-0.389,0.641
-0.0066,0.0896,1.0151,32.91,-2.168,-0.298,0.733
-0.0061,0.0884,1.0317,32.91,-2.099,-0.351,0.626
-0.0054,0.0801,1.0173,32.81,-2.267,-0.328,0.748
-0.0027,0.0872,1.0154,32.91,-2.397,-0.45,0.504
-0.0151,0.0833,1.031,32.91,-2.397,-0.466,0.802
-0.0093,0.0876,1.0193,32.86,-2.237,-0.405,0.634
-0.0066,0.0862,1.0188,32.86,-2.069,-0.412,0.634
-0.0093,0.084,1.0149,32.86,-2.229,-0.557,0.664
-0.0139,0.0842,1.0154,32.95,-2.275,-0.557,0.786
-0.0144,0.0835,1.0225,32.86,-1.985,-0.366,0.687
-0.009,0.0847,1.0166,32.86,-2.16,-0.45,0.71
-0.0068,0.0889,1.0291,32.86,-2.153,-0.443,0.611
-0.0083,0.0854,1.0266,32.86,-2.099,-0.687,0.435
-0.0112,0.0879,1.0234,32.86,-2.237,-0.313,0.947
-0.002,0.0857,1.0239,32.86,-2.137,-0.542,0.771
-0.0117,0.0867,1.0156,32.95,-2.298,-0.328,0.672
-0.011,0.0874,1.0276,32.86,-2.298,-0.496,0.634
-0.0068,0.083,1.0144,32.86,-2.137,-0.489,0.779
-0.0105,0.0852,1.0273,32.86,-2.061,-0.527,0.466
-0.0115,0.0876,1.0142,32.86,-2.092,-0.397,0.626
-0.0076,0.082,1.0229,32.81,-2.229,-0.481,0.725
-0.0171,0.0818,1.0176,32.91,-2.13,-0.466,0.542
-0.0066,0.0879,1.0208,33.0,-2.015,-0.565,0.634
-0.0132,0.0869,1.0239,32.81,-2.092,-0.557,0.733
-0.0059,0.0852,1.0151,32.91,-2.229,-0.145,0.534
-0.0117,0.0779,1.0212,32.81,-2.176,-0.458,0.489
-0.0054,0.0872,1.0247,32.91,-2.099,-0.542,0.84
-0.01,0.0874,1.0173,32.86,-2.389,-0.42,0.511
-0.0112,0.0876,1.0132,32.86,-2.13,-0.267,0.496
-0.0166,0.0872,1.0278,32.86,-2.168,-0.359,0.863
-0.0122,0.0823,1.0234,32.86,-2.061,-0.511,0.511
-0.011,0.0837,1.0217,32.86,-2.023,-0.534,0.786
-0.0095,0.0869,1.0208,32.86,-2.214,-0.214,0.641
-0.0122,0.0857,1.0149,32.95,-2.267,-0.45,0.603
-0.0073,0.083,1.0217,32.86,-2.26,-0.389,0.656
-0.0049,0.0798,1.0281,32.81,-2.145,-0.183,0.58
-0.0142,0.0847,1.019,32.86,-2.122,-0.481,0.55
-0.0068,0.0847,1.0276,33.0,-2.267,-0.282,0.672
-0.01,0.0796,1.0088,32.91,-2.183,-0.29,0.71
-0.0115,0.0862,1.0181,32.91,-2.168,-0.481,0.71
-0.0083,0.0854,1.0173,32.91,-2.176,-0.489,0.649
-0.0083,0.0842,1.0146,32.91,-2.282,-0.626,0.641
-0.0088,0.0803,1.0244,32.91,-2.183,-0.42,0.664
-0.0093,0.0803,1.009,32.81,-2.16,-0.366,0.809
-0.0093,0.0845,1.0298,32.77,-2.206,-0.458,0.634
-0.0125,0.0913,1.0198,32.77,-2.176,-0.427,0.626
-0.0139,0.0815,1.0193,32.86,-2.099,-0.107,0.618
-0.0103,0.0891,1.0125,32.95,-2.328,-0.366,0.565
-0.0083,0.0852,1.0212,32.86,-2.252,-0.328,0.603
-0.0083,0.0808,1.0234,32.95,-2.046,-0.405,0.565
-0.0063,0.0842,1.0222,32.91,-2.13,-0.382,0.481
-0.0085,0.084,1.0269,32.81,-2.206,-0.466,0.511
-0.0142,0.085,1.0215,32.81,-2.084,-0.275,0.527
-0.0161,0.0837,1.021,32.81,-2.038,-0.397,0.55
-0.0002,0.0845,1.0264,32.86,-2.214,-0.351,0.71
-0.0125,0.0867,1.02,32.86,-2.145,-0.382,0.71
-0.0127,0.085,1.0205,32.91,-2.237,-0.321,0.374
-0.0117,0.0874,1.0188,32.91,-2.176,-0.26,0.58
-0.0076,0.0835,1.0288,32.81,-2.176,-0.29,0.687
-0.0039,0.0845,1.0186,32.91,-2.061,-0.466,0.534
-0.011,0.0886,1.0212,32.86,-2.237,-0.45,0.656
-0.0132,0.0828,1.0237,32.86,-2.107,-0.519,0.626
-0.0115,0.0837,1.0183,32.95,-2.061,-0.519,0.626
-0.0078,0.083,1.0234,32.81,-2.244,-0.321,0.489
-0.0037,0.0818,1.022,32.81,-2.008,-0.359,0.55
-0.0168,0.0879,1.0308,33.0,-2.382,-0.313,0.718
-0.0125,0.085,1.0173,32.86,-2.168,-0.557,0.641
-0.0066,0.0835,1.0249,32.86,-2.008,-0.511,0.863
-0.0049,0.084,1.0212,32.77,-2.282,-0.351,0.763
-0.0076,0.0837,1.0168,32.91,-2.16,-0.534,0.733
-0.011,0.0884,1.0139,32.81,-2.137,-0.405,0.634
-0.0146,0.0801,1.0176,32.81,-2.267,-0.099,0.595
-0.0125,0.0874,1.0251,32.91,-2.16,-0.435,0.573
-0.0093,0.0828,1.0146,32.95,-2.267,-0.298,0.374
-0.0122,0.0813,1.02,32.86,-2.198,-0.16,0.634
-0.0103,0.085,1.0264,32.77,-2.214,-0.336,0.626
-0.0066,0.0879,1.0291,32.86,-2.153,-0.389,0.771
-0.009,0.0835,1.0264,32.91,-2.183,-0.412,0.641
-0.0154,0.0872,1.0242,32.91,-2.298,-0.427,0.496
-0.0122,0.0806,1.02,32.72,-2.244,-0.206,0.702
-0.01,0.085,1.0186,32.91,-2.229,-0.382,0.641
-0.011,0.0854,1.0203,32.81,-2.244,-0.481,0.725
-0.0088,0.0825,1.019,32.81,-2.183,-0.481,0.565
-0.0081,0.0842,1.0142,32.91,-2.137,-0.298,0.58
-0.0159,0.0857,1.0176,32.86,-2.038,-0.397,0.595
-0.0127,0.0872,1.0232,32.77,-2.229,-0.359,0.55
-0.009,0.0859,1.0139,32.86,-2.053,-0.511,0.595
-0.0098,0.0862,1.0244,32.86,-2.137,-0.458,0.847
-0.0137,0.082,1.0266,32.86,-2.206,-0.313,0.473
-0.0115,0.082,1.0088,32.86,-2.229,-0.336,0.626
-0.01,0.0876,1.0178,32.91,-2.137,-0.191,0.687
-0.0076,0.0862,1.02,32.91,-2.023,-0.374,0.443
-0.0161,0.0833,1.0212,32.81,-2.046,-0.305,0.695
-0.01,0.084,1.0256,32.81,-2.198,-0.321,0.718
-0.0095,0.0874,1.0298,32.91,-2.206,-0.435,0.588
-0.0071,0.0833,1.0256,32.91,-2.344,-0.511,0.733
-0.0056,0.0898,1.0225,32.81,-2.397,-0.29,0.786
-0.012,0.083,1.0212,32.91,-2.092,-0.313,0.565
-0.0061,0.0825,1.0159,32.81,-2.053,-0.412,0.634
-0.011,0.0862,1.022,32.91,-2.115,-0.313,0.641
-0.0098,0.0857,1.0242,32.81,-2.153,-0.519,0.573
-0.0093,0.0803,1.0225,32.81,-2.145,-0.534,0.641
-0.0027,0.0854,1.0232,32.91,-2.031,-0.504,0.763
-0.0068,0.0862,1.0254,32.95,-2.221,-0.519,0.588
-0.0144,0.0818,1.0181,32.86,-2.153,-0.496,0.725
-0.0107,0.0837,1.0112,32.86,-2.092,-0.13,0.588
-0.0105,0.0791,1.022,32.86,-2.252,-0.542,0.664
-0.0171,0.085,1.0186,32.86,-2.336,-0.45,0.519
-0.0034,0.0869,1.02,32.86,-2.191,-0.496,0.397
-0.0085,0.082,1.0244,32.81,-2.183,-0.473,0.634
-0.0005,0.0872,1.0142,32.91,-2.153,-0.618,0.664
-0.0107,0.0852,1.0266,32.81,-2.321,-0.229,0.473
-0.0088,0.0825,1.0208,32.91,-2.435,-0.679,0.687
-0.0093,0.0862,1.0088,32.91,-2.191,-0.298,0.649
-0.0071,0.085,1.0198,32.91,-2.412,-0.26,0.595
-0.0061,0.0862,1.0122,32.81,-2.229,-0.275,0.748
-0.0093,0.0852,1.021,32.81,-2.26,-0.29,0.618
-0.0076,0.0815,1.0125,32.81,-2.221,-0.321,0.58
-0.0071,0.0918,1.0212,32.81,-2.206,-0.321,0.695
-0.0044,0.0825,1.0195,32.86,-2.176,-0.573,0.687
-0.0076,0.0845,1.0215,32.86,-2.061,-0.427,0.603
-0.0093,0.0828,1.0315,32.86,-2.137,-0.405,0.748
-0.0127,0.0891,1.0247,32.86,-2.206,-0.435,0.71
-0.0105,0.0845,1.0198,32.91,-2.031,-0.321,0.695
-0.0061,0.0806,1.0166,32.95,-2.076,-0.435,0.672
-0.0051,0.083,1.0178,32.91,-2.29,-0.473,0.618
-0.0056,0.0864,1.0266,32.81,-2.229,-0.641,0.733
-0.0115,0.0874,1.0173,32.91,-2.206,-0.412,0.611
-0.0088,0.0847,1.0234,32.91,-2.061,-0.344,0.702
-0.0066,0.0815,1.0164,32.95,-2.229,-0.427,0.771
-0.0127,0.0847,1.0176,32.86,-2.137,-0.435,0.527
-0.0061,0.0825,1.0215,32.86,-2.061,-0.489,0.687
-0.0115,0.0762,1.0151,32.95,-2.183,-0.389,0.641
-0.0061,0.085,1.0149,32.91,-2.107,-0.191,0.58
-0.0076,0.0847,1.011,32.91,-2.26,-0.603,0.847
-0.0076,0.0847,1.0193,32.81,-2.168,-0.412,0.855
-0.0046,0.0867,1.0286,32.81,-2.267,-0.519,0.534
-0.0093,0.084,1.0259,32.81,-2.153,-0.481,0.603
-0.0032,0.0889,1.0291,32.91,-2.26,-0.282,0.71
-0.0085,0.0867,1.0239,32.86,-2.252,-0.389,0.687
-0.0093,0.0803,1.0132,32.86,-2.191,-0.45,0.672
-0.0129,0.0828,1.022,32.86,-2.206,-0.405,0.611
-0.0071,0.0906,1.0176,32.86,-2.229,-0.435,0.71
-0.0073,0.0847,1.0181,32.86,-2.145,-0.328,0.672
-0.0161,0.0835,1.02,32.91,-2.214,-0.458,0.702
-0.0117,0.0815,1.022,32.86,-2.176,-0.397,0.588
-0.0112,0.0901,1.0232,32.91,-2.168,-0.504,0.634
-0.0095,0.084,1.0156,32.91,-2.0,-0.397,0.588
-0.0093,0.083,1.0168,32.91,-2.076,-0.244,0.519
-0.0132,0.0825,1.0146,32.81,-2.046,-0.244,0.557
-0.0115,0.0872,1.0149,32.91,-2.382,-0.328,0.557
-0.0083,0.0835,1.0256,32.91,-2.252,-0.374,0.695
-0.0107,0.0884,1.0217,32.81,-2.115,-0.359,0.504
-0.01,0.0842,1.02,32.91,-2.237,-0.458,0.641
-0.0068,0.0874,1.0159,32.86,-2.214,-0.542,0.481
-0.0063,0.0852,1.0247,32.86,-2.13,-0.412,0.603
-0.0088,0.0903,1.0266,32.77,-2.305,-0.473,0.718
-0.0156,0.084,1.0259,32.95,-2.137,-0.282,0.618
-0.0071,0.0852,1.0259,32.86,-2.16,-0.328,0.725
-0.0081,0.085,1.0278,32.95,-2.29,-0.191,0.679
-0.0134,0.0872,1.0212,32.95,-2.053,-0.305,0.641
-0.012,0.0879,1.0129,32.95,-2.198,-0.336,0.626
-0.0098,0.0833,1.0134,33.05,-2.176,-0.695,0.687
-0.0105,0.0867,1.0186,32.77,-2.084,-0.481,0.618
-0.0129,0.0818,1.0261,32.91,-2.183,-0.435,0.565
-0.0125,0.0835,1.0183,32.91,-2.397,-0.603,0.603
-0.01,0.0852,1.0198,32.91,-2.481,-0.42,0.809
-0.0068,0.085,1.0142,32.91,-2.328,-0.573,0.611
-0.0042,0.0857,1.0107,33.0,-2.244,-0.344,0.718
-0.0063,0.084,1.0251,32.86,-2.191,-0.534,0.748
-0.0017,0.0881,1.0149,32.77,-2.122,-0.298,0.626
-0.0076,0.0852,1.0161,32.86,-2.023,-0.26,0.664
-0.0105,0.0862,1.0232,32.86,-2.0,-0.26,0.817
-0.0154,0.0913,1.0217,32.86,-2.313,-0.42,0.702
-0.0093,0.0864,1.0217,32.77,-2.244,-0.282,0.71
-0.0137,0.0837,1.0244,32.81,-2.29,-0.458,0.618
-0.0115,0.0811,1.0286,33.0,-2.351,-0.214,0.611
-0.0071,0.0894,1.0215,32.91,-2.221,-0.542,0.695
-0.012,0.0869,1.0134,32.81,-2.359,-0.198,0.756
-0.0132,0.0918,1.0144,32.91,-2.336,-0.298,0.611
-0.01,0.0862,1.0232,33.0,-2.046,-0.405,0.756
-0.0046,0.0833,1.0286,32.86,-2.115,-0.42,0.725
-0.0076,0.0813,1.0151,32.95,-2.237,-0.481,0.786
-0.0066,0.0896,1.0222,32.86,-1.931,-0.55,0.634
-0.0054,0.0852,1.0234,32.95,-2.145,-0.405,0.641
-0.0098,0.084,1.0183,32.91,-2.168,-0.473,0.557
-0.0085,0.0801,1.0168,32.91,-2.153,-0.473,0.718
-0.01,0.0884,1.0195,32.91,-2.153,-0.237,0.855
-0.0061,0.083,1.0215,32.81,-2.122,-0.473,0.664
-0.0061,0.0835,1.0215,32.91,-2.153,-0.496,0.695
-0.0046,0.0852,1.0205,32.91,-2.336,-0.466,0.641
-0.0081,0.0847,1.0259,32.91,-2.023,-0.511,0.45
-0.0042,0.0837,1.0085,32.91,-2.198,-0.321,0.595
-0.0056,0.0791,1.0237,32.91,-2.252,-0.695,0.519
-0.0122,0.0876,1.0188,32.91,-2.16,-0.496,0.634
-0.0098,0.0884,1.0232,32.91,-2.191,-0.481,0.718
-0.0103,0.0874,1.0159,32.81,-2.328,-0.557,0.74
-0.0088,0.0842,1.0212,32.77,-2.198,-0.382,0.534
-0.0122,0.0857,1.0234,32.86,-2.053,-0.458,0.58
-0.0151,0.0818,1.019,32.86,-2.443,-0.435,0.573
-0.0161,0.0815,1.0171,32.91,-2.137,-0.328,0.733
-0.0103,0.085,1.0229,32.95,-2.084,-0.389,0.595
-0.0024,0.0833,1.0251,32.81,-2.252,-0.382,0.55
-0.0085,0.0847,1.0256,32.91,-2.237,-0.321,0.58
-0.011,0.0806,1.0178,32.91,-2.252,-0.344,0.473
-0.0132,0.0835,1.0225,32.91,-2.145,-0.435,0.58
-0.0093,0.0872,1.0154,32.91,-2.267,-0.458,0.603
-0.0063,0.0818,1.0156,32.91,-1.985,-0.321,0.58
-0.0098,0.0852,1.0198,32.86,-1.969,-0.282,0.489
-0.0029,0.0811,1.0259,32.95,-2.092,-0.397,0.687
-0.0059,0.0837,1.0227,32.86,-2.206,-0.611,0.649
-0.0083,0.0852,1.0293,32.86,-2.29,-0.29,0.626
-0.0066,0.0854,1.0159,32.77,-2.229,-0.481,0.687
-0.0083,0.0859,1.0129,32.81,-2.374,-0.473,0.588
-0.0054,0.0891,1.0193,32.91,-2.244,-0.511,0.55
-0.0054,0.0901,1.0251,32.81,-2.183,-0.458,0.649
-0.0081,0.0793,1.0234,32.81,-2.13,-0.275,0.901
-0.0034,0.0876,1.0217,32.91,-2.137,-0.214,0.611
-0.0076,0.0837,1.0293,32.91,-2.176,-0.229,0.695
-0.0029,0.0818,1.0181,32.91,-2.229,-0.374,0.649
-0.009,0.085,1.0208,32.86,-2.176,-0.351,0.695
-0.0137,0.083,1.0317,32.86,-2.145,-0.519,0.573
-0.0125,0.0876,1.0178,32.86,-2.153,-0.359,0.641
-0.0081,0.0864,1.0208,32.95,-2.206,-0.496,0.611
-0.0107,0.0833,1.0295,32.95,-2.153,-0.473,0.687
-0.0098,0.0884,1.0227,32.86,-2.214,-0.458,0.672
-0.0059,0.0845,1.0251,32.86,-2.244,-0.466,0.771
-0.0088,0.0837,1.0208,32.86,-2.137,-0.458,0.557
-0.0129,0.0903,1.02,32.95,-2.275,-0.397,0.771
-0.009,0.082,1.0144,32.81,-2.137,-0.489,0.427
-0.0188,0.0818,1.0315,32.95,-2.176,-0.328,0.656
-0.0166,0.0806,1.0156,32.91,-2.275,-0.504,0.733
-0.0076,0.0889,1.0198,32.91,-2.198,-0.405,0.702
-0.0132,0.0867,1.0171,32.91,-2.221,-0.496,0.687
-0.0146,0.0874,1.0234,32.81,-2.099,-0.344,0.649
-0.0129,0.0845,1.0186,32.86,-2.298,-0.557,0.649
-0.0063,0.0842,1.0261,32.86,-2.145,-0.389,0.71
-0.0098,0.083,1.0234,32.86,-2.13,-0.405,0.718
-0.0151,0.0854,1.0222,32.86,-2.198,-0.412,0.672
-0.0103,0.0857,1.0195,32.91,-2.107,-0.397,0.626
-0.0095,0.0864,1.0198,32.81,-2.237,-0.45,0.603
-0.0073,0.0876,1.0137,32.91,-2.115,-0.542,0.527
-0.0107,0.082,1.0193,32.91,-2.183,-0.298,0.565
-0.0098,0.0813,1.0198,32.86,-2.115,-0.344,0.71
-0.0178,0.0857,1.0181,32.86,-2.176,-0.504,0.702
-0.0115,0.0828,1.0254,32.86,-2.275,-0.389,0.618
-0.0105,0.082,1.0168,32.95,-2.336,-0.435,0.565
-0.012,0.0862,1.0234,32.86,-2.275,-0.382,0.939
-0.0105,0.0835,1.022,32.91,-2.191,-0.397,0.542
-0.0066,0.0835,1.0242,32.86,-2.382,-0.443,0.58
-0.0105,0.0864,1.0188,32.81,-2.206,-0.435,0.58
-0.0076,0.0872,1.022,32.81,-2.176,-0.351,0.725
-0.0181,0.0806,1.0225,32.81,-2.191,-0.527,0.473
-0.0093,0.0847,1.0261,32.81,-2.275,-0.351,0.542
-0.0076,0.0859,1.0146,32.91,-2.313,-0.412,0.58
-0.0098,0.0903,1.0225,32.86,-2.267,-0.405,0.718
-0.009,0.0874,1.0161,32.86,-2.176,-0.664,0.794
-0.0076,0.0859,1.0173,32.95,-2.122,-0.573,0.504
-0.0066,0.083,1.0203,32.86,-2.206,-0.374,0.702
-0.0017,0.0789,1.0205,32.86,-2.244,-0.221,0.603
-0.0154,0.0833,1.0188,32.86,-2.038,-0.45,0.611
-0.0115,0.0876,1.019,32.81,-2.183,-0.458,0.824
-0.0085,0.085,1.0198,32.91,-2.153,-0.359,0.771
-0.012,0.0813,1.0215,32.72,-2.305,-0.473,0.573
-0.0137,0.0837,1.0205,32.81,-2.237,-0.481,0.473
-0.0068,0.085,1.0166,32.81,-2.412,-0.427,0.824
-0.0088,0.0835,1.0271,32.86,-2.267,-0.58,0.611
-0.01,0.0901,1.0122,32.86,-2.153,-0.466,0.504
-0.0042,0.0835,1.0183,32.86,-2.244,-0.382,0.588
-0.0125,0.0898,1.0166,32.81,-2.168,-0.557,0.58
-0.0088,0.0859,1.0291,32.86,-2.321,-0.466,0.702
-0.0071,0.0864,1.0217,33.0,-2.176,-0.55,0.649
-0.0081,0.0793,1.0176,32.81,-2.244,-0.344,0.687
-0.0059,0.0825,1.0142,33.0,-2.153,-0.305,0.527
-0.0127,0.0894,1.0215,32.91,-2.214,-0.573,0.588
-0.0039,0.0842,1.0208,32.81,-2.305,-0.427,0.718
-0.009,0.0874,1.0164,32.91,-2.221,-0.321,0.641
-0.0105,0.0886,1.0159,32.81,-2.252,-0.557,0.603
-0.0071,0.0793,1.0308,32.86,-2.076,-0.611,0.542
-0.0044,0.0869,1.0164,32.86,-2.237,-0.466,0.725
-0.0042,0.0884,1.0232,32.95,-2.069,-0.405,0.595
-0.0144,0.0845,1.0171,32.95,-2.206,-0.519,0.779
-0.0088,0.0872,1.0144,32.86,-2.229,-0.435,0.695
-0.0146,0.0854,1.0198,32.95,-2.153,-0.344,0.603
-0.01,0.0808,1.0251,32.86,-2.191,-0.382,0.779
-0.0107,0.0835,1.021,32.86,-2.328,-0.496,0.641
-0.0037,0.0874,1.0134,32.91,-2.221,-0.237,0.664
-0.0081,0.0806,1.0146,32.91,-2.191,-0.298,0.634
-0.0051,0.0825,1.0276,32.91,-2.42,-0.305,0.496
-0.0081,0.0845,1.0188,32.81,-2.252,-0.427,0.611
-0.01,0.0864,1.0173,32.91,-2.267,-0.382,0.496
-0.0103,0.0845,1.0264,32.86,-2.16,-0.412,0.603
-0.01,0.0786,1.0261,32.95,-2.176,-0.42,0.649
-0.0093,0.083,1.0171,32.95,-2.145,-0.504,0.656
-0.0159,0.0903,1.0247,32.86,-2.122,-0.466,0.603
-0.0085,0.0825,1.022,32.86,-2.206,-0.351,0.695
-0.0083,0.0903,1.0183,32.91,-2.237,-0.305,0.702
-0.01,0.0847,1.0217,32.91,-2.305,-0.489,0.634
-0.0127,0.0815,1.0215,32.81,-2.168,-0.565,0.511
-0.0076,0.0796,1.0266,32.95,-2.206,-0.344,0.672
-0.0144,0.0872,1.0212,32.77,-2.183,-0.29,0.695
-0.009,0.0886,1.022,32.86,-2.214,-0.359,0.489
-0.0112,0.0881,1.0217,32.86,-2.26,-0.374,0.74
-0.0146,0.0793,1.0203,32.77,-2.313,-0.374,0.725
-0.0168,0.0806,1.0186,32.86,-2.267,-0.427,0.802
-0.0107,0.0854,1.0227,32.86,-2.29,-0.473,0.618
-0.0122,0.0872,1.0288,32.86,-2.313,-0.511,0.656
-0.011,0.0811,1.0178,32.86,-2.015,-0.542,0.71
-0.0168,0.0889,1.0259,32.86,-2.336,-0.298,0.649
-0.0073,0.0867,1.03,32.86,-2.26,-0.275,0.725
-0.01,0.0864,1.0203,32.77,-2.359,-0.382,0.74
-0.0095,0.0862,1.0278,32.86,-2.107,-0.366,0.763
-0.0134,0.0884,1.021,32.77,-2.13,-0.405,0.672
-0.0054,0.0815,1.0227,32.86,-2.13,-0.45,0.656
-0.012,0.082,1.0237,32.86,-2.099,-0.435,0.542
-0.0054,0.083,1.0161,32.86,-2.26,-0.412,0.679
-0.0107,0.082,1.0261,32.95,-2.206,-0.405,0.603
-0.011,0.0854,1.0132,32.95,-2.107,-0.351,0.855
-0.0068,0.0845,1.0247,32.95,-2.275,-0.366,0.748
-0.0034,0.0845,1.0134,32.95,-2.145,-0.374,0.649
-0.0115,0.0867,1.0225,32.86,-2.122,-0.305,0.679
-0.0112,0.0842,1.0186,32.86,-2.237,-0.466,0.84
-0.0071,0.0815,1.0227,32.86,-2.214,-0.405,0.588
-0.0129,0.0857,1.0161,32.86,-2.153,-0.588,0.702
-0.01,0.0859,1.0125,32.86,-2.046,-0.382,0.672
-0.0093,0.0791,1.0325,32.95,-2.13,-0.344,0.542
-0.0161,0.0837,1.0159,32.91,-2.359,-0.076,0.725
-0.0063,0.0852,1.0266,32.91,-2.359,-0.374,0.634
-0.0039,0.0791,1.0129,32.81,-2.244,-0.595,0.626
-0.0027,0.0857,1.0222,32.91,-2.366,-0.267,0.626
-0.0139,0.0894,1.0225,32.81,-2.176,-0.305,0.618
-0.0112,0.0813,1.0212,33.0,-2.122,-0.282,0.618
-0.0095,0.0842,1.0166,32.91,-2.214,-0.252,0.695
-0.0151,0.0815,1.0237,32.72,-1.962,-0.496,0.634
-0.0129,0.0879,1.0144,32.91,-2.092,-0.366,0.733
-0.0107,0.0806,1.0186,32.91,-2.328,-0.344,0.695
-0.0098,0.0845,1.0232,32.91,-2.229,-0.511,0.626
-0.0046,0.0833,1.0215,32.91,-2.122,-0.489,0.779
-0.0061,0.0796,1.0215,32.81,-1.969,-0.344,0.649
-0.0088,0.0842,1.021,32.91,-2.282,-0.275,0.679
-0.0085,0.0835,1.0146,32.81,-2.183,-0.511,0.679
-0.0115,0.0889,1.0159,32.86,-2.321,-0.397,0.702
-0.0081,0.0862,1.0229,32.95,-2.336,-0.397,0.656
-0.0078,0.085,1.0198,32.86,-2.16,-0.397,0.74
0.0012,0.0806,1.0225,32.86,-2.13,-0.29,0.763
-0.0061,0.0833,1.0234,32.86,-2.176,-0.443,0.519
-0.0127,0.0874,1.022,32.86,-2.221,-0.435,0.626
-0.0115,0.0886,1.0276,32.81,-2.137,-0.42,0.786
-0.0085,0.083,1.0176,32.95,-2.191,-0.443,0.74
-0.0085,0.0874,1.0232,32.81,-2.069,-0.641,0.504
-0.0137,0.0833,1.0259,32.91,-2.107,-0.405,0.519
-0.0083,0.092,1.0212,32.81,-2.267,-0.313,0.832
-0.0083,0.0779,1.0183,32.91,-2.107,-0.229,0.603
-0.0059,0.082,1.0164,32.91,-2.084,-0.389,0.618
-0.0129,0.085,1.0173,32.81,-2.214,-0.359,0.725
-0.0066,0.0874,1.0234,32.86,-2.107,-0.313,0.748
-0.0127,0.0859,1.0283,32.86,-2.153,-0.496,0.786
-0.0083,0.0881,1.0159,32.95,-2.305,-0.359,0.626
-0.0115,0.0852,1.0261,32.86,-2.191,-0.42,0.672
-0.0112,0.083,1.0212,32.91,-2.183,-0.397,0.672
-0.0103,0.0837,1.0154,32.91,-2.267,-0.29,0.527
-0.0117,0.0828,1.0154,32.81,-2.099,-0.45,0.847
-0.0107,0.0823,1.0161,32.81,-2.252,-0.458,0.702
-0.0083,0.0891,1.0227,33.0,-2.183,-0.29,0.786
-0.0122,0.0798,1.0215,32.91,-2.351,-0.389,0.702
-0.0098,0.0833,1.0208,32.86,-2.137,-0.458,0.588
-0.0081,0.0833,1.0232,32.86,-2.206,-0.511,0.649
-0.0103,0.0867,1.0183,32.95,-2.069,-0.481,0.565
-0.012,0.0862,1.0271,32.77,-2.267,-0.511,0.656
-0.0076,0.0801,1.0149,32.86,-2.313,-0.443,0.466
-0.0139,0.0791,1.0176,32.81,-2.031,-0.321,0.687
-0.0134,0.0845,1.0222,32.86,-2.496,-0.328,0.71
-0.0103,0.0862,1.02,33.0,-2.176,-0.519,0.687
-0.0066,0.0852,1.0198,32.91,-2.29,-0.427,0.534
-0.0103,0.0796,1.0188,33.0,-2.069,-0.351,0.641
-0.0088,0.0862,1.0225,32.91,-2.176,-0.443,0.519
-0.0159,0.0857,1.0212,32.91,-2.237,-0.351,0.664
-0.0122,0.0762,1.0176,32.91,-2.191,-0.443,0.748
-0.0051,0.0857,1.0276,32.86,-2.168,-0.496,0.611
-0.0024,0.0908,1.019,32.95,-2.298,-0.427,0.573
-0.0173,0.0918,1.0198,32.86,-2.153,-0.321,0.672
-0.0107,0.0884,1.019,32.86,-2.221,-0.45,0.809
-0.012,0.0808,1.0234,32.86,-2.305,-0.412,0.763
-0.0088,0.0825,1.0264,32.95,-2.221,-0.397,0.626
-0.0085,0.0833,1.0222,32.86,-2.267,-0.466,0.649
-0.0081,0.0828,1.0254,32.86,-2.107,-0.305,0.771
-0.0117,0.0867,1.0229,32.91,-2.237,-0.382,0.573
-0.0137,0.0801,1.0247,32.91,-2.336,-0.42,0.588
-0.0151,0.084,1.0229,32.91,-2.198,-0.42,0.534
-0.0083,0.085,1.0212,32.91,-2.183,-0.191,0.664
-0.0078,0.0842,1.02,32.91,-2.122,-0.221,0.763
-0.0125,0.0859,1.0164,32.91,-2.16,-0.427,0.649
-0.0068,0.0828,1.0171,32.81,-2.229,-0.542,0.573
-0.0134,0.082,1.0134,32.91,-2.275,-0.45,0.656
-0.0134,0.0852,1.0266,32.91,-2.313,-0.405,0.71
-0.0081,0.0825,1.0225,32.91,-2.214,-0.328,0.565
-0.0171,0.0818,1.0171,32.91,-2.015,-0.527,0.71
-0.0112,0.0854,1.0256,32.91,-2.229,-0.382,0.618
-0.0122,0.0842,1.021,32.91,-2.046,-0.351,0.649
-0.0073,0.0903,1.0342,32.91,-2.313,-0.557,0.58
-0.0081,0.0891,1.0237,32.91,-1.969,-0.458,0.588
-0.0137,0.0884,1.0132,32.81,-2.435,-0.435,0.626
-0.0054,0.0886,1.0161,32.86,-2.191,-0.374,0.763
-0.0024,0.0806,1.0227,32.95,-2.298,-0.458,0.603
-0.0112,0.0845,1.0159,32.95,-2.183,-0.427,0.687
-0.0122,0.0862,1.0227,32.86,-2.267,-0.282,0.809
-0.0063,0.0823,1.0244,32.86,-2.29,-0.29,0.573
-0.0017,0.0867,1.0198,32.91,-2.237,-0.443,0.672
-0.0105,0.0891,1.0227,32.86,-2.374,-0.336,0.595
-0.0125,0.0833,1.0166,32.81,-2.115,-0.496,0.679
-0.0032,0.0894,1.0176,32.86,-2.267,-0.504,0.832
-0.0085,0.0889,1.0239,32.91,-2.183,-0.443,0.656
-0.0098,0.0818,1.0115,32.86,-2.221,-0.305,0.809
-0.0088,0.0811,1.0125,33.0,-2.344,-0.374,0.565
-0.0054,0.0857,1.0247,32.95,-2.183,-0.344,0.496
-0.0054,0.0825,1.0271,32.91,-2.099,-0.45,0.466
-0.0034,0.0813,1.0095,32.91,-2.282,-0.443,0.786
-0.0081,0.0886,1.0178,32.91,-2.153,-0.275,0.702
-0.0081,0.0837,1.0244,32.81,-2.191,-0.397,0.695
-0.0071,0.0845,1.0178,32.91,-2.267,-0.366,0.824
-0.01,0.0859,1.0242,32.91,-2.221,-0.42,0.71
-0.0056,0.0796,1.0164,32.91,-2.336,-0.466,0.687
-0.011,0.094,1.0203,32.91,-1.985,-0.504,0.695
-0.0054,0.083,1.0281,32.91,-2.16,-0.664,0.58
-0.0081,0.0786,1.0215,32.91,-1.954,-0.55,0.611
-0.0039,0.0886,1.0217,32.91,-2.237,-0.412,0.649
-0.0095,0.0781,1.0261,32.95,-2.305,-0.527,0.496
-0.0071,0.0872,1.0249,32.95,-2.26,-0.534,0.664
-0.0134,0.084,1.0171,32.86,-2.214,-0.351,0.679
-0.0078,0.0835,1.0151,32.86,-2.267,-0.443,0.664
-0.01,0.0833,1.0256,32.95,-2.382,-0.427,0.618
-0.0056,0.0842,1.0208,32.95,-2.16,-0.397,0.626
-0.0115,0.0823,1.0369,32.86,-2.031,-0.443,0.603
-0.0127,0.0867,1.022,32.86,-2.107,-0.359,0.641
-0.0122,0.0881,1.0225,32.95,-2.183,-0.382,0.55
-0.0081,0.0896,1.019,32.91,-2.076,-0.351,0.573
-0.0151,0.0852,1.0186,32.91,-2.443,-0.458,0.71
-0.0078,0.0852,1.0266,32.91,-2.229,-0.382,0.557
-0.0071,0.082,1.0264,32.95,-2.282,-0.618,0.733
-0.0071,0.0869,1.0247,32.91,-2.26,-0.405,0.641
-0.0134,0.0847,1.0229,32.91,-2.328,-0.42,0.511
-0.0051,0.0862,1.0217,32.91,-2.168,-0.374,0.817
-0.0066,0.0754,1.022,32.91,-2.099,-0.336,0.687
-0.01,0.0894,1.0198,32.91,-2.145,-0.321,0.573
-0.0105,0.0874,1.0193,32.86,-2.183,-0.359,0.656
-0.0076,0.0874,1.0215,32.95,-2.183,-0.496,0.718
-0.0076,0.0837,1.0212,32.86,-2.122,-0.336,0.794
-0.01,0.092,1.0237,32.95,-2.206,-0.473,0.641
-0.0122,0.0896,1.0183,32.91,-2.16,-0.405,0.641
-0.0137,0.0886,1.0178,32.86,-2.328,-0.427,0.443
-0.0129,0.0845,1.0249,32.81,-2.275,-0.344,0.588
-0.0076,0.0901,1.02,32.95,-2.328,-0.229,0.626
-0.0068,0.0825,1.022,32.91,-2.313,-0.496,0.534
-0.0066,0.0842,1.0225,32.91,-2.282,-0.374,0.641
-0.0146,0.0918,1.0156,32.91,-2.305,-0.397,0.603
-0.0088,0.0845,1.0242,32.81,-2.046,-0.206,0.748
-0.0095,0.085,1.0208,32.91,-2.26,-0.588,0.763
-0.009,0.0842,1.0198,32.91,-2.237,-0.473,0.611
-0.0056,0.0801,1.0215,32.91,-2.336,-0.496,0.557
-0.0059,0.0864,1.0151,32.81,-2.137,-0.397,0.45
-0.0085,0.0898,1.0125,32.81,-2.351,-0.595,0.611
-0.0166,0.0811,1.0144,32.91,-2.336,-0.496,0.542
-0.0117,0.0835,1.0166,32.81,-2.206,-0.489,0.626
-0.0073,0.0938,1.0325,32.91,-2.366,-0.863,0.656
-0.0149,0.0833,1.0146,32.91,-2.466,-0.466,0.588
-0.01,0.0881,1.009,32.95,-2.252,-0.298,0.618
-0.012,0.0862,1.0146,32.86,-2.534,-0.336,0.733
-0.0088,0.075,1.0205,32.86,-2.244,-0.527,0.626
-0.0076,0.0842,1.0266,32.86,-2.107,-0.542,0.649
-0.0134,0.0876,1.022,32.95,-2.221,-0.527,0.397
-0.0098,0.0779,1.0017,32.95,-2.191,-0.237,0.412
-0.0071,0.0894,1.0125,32.95,-2.382,-0.328,0.748
-0.0149,0.0811,1.0054,32.95,-2.351,-0.405,0.794
-0.0149,0.0835,1.0237,32.95,-2.206,-0.412,0.588
-0.0083,0.0859,1.0208,32.95,-2.282,-0.382,0.641
-0.012,0.0818,1.0234,32.95,-2.031,-0.099,0.687
-0.0144,0.082,1.0349,32.95,-2.191,-0.412,0.924
-0.0107,0.0886,1.0281,32.91,-2.153,-0.29,0.618
-0.0039,0.0869,1.0166,32.91,-2.191,-0.718,0.664
-0.0063,0.0847,1.0107,32.91,-2.305,-0.176,0.573
-0.0154,0.0854,1.0137,33.0,-2.176,-0.389,0.618
-0.0142,0.0867,1.0283,33.0,-2.275,-0.435,0.664
-0.0122,0.0867,1.019,32.91,-2.183,-0.237,0.702
-0.0117,0.0835,1.0242,32.86,-2.122,-0.496,0.573
-0.0073,0.0825,1.0212,32.86,-2.069,-0.298,0.649
-0.0122,0.0808,1.0183,32.86,-2.336,-0.267,0.649
-0.0107,0.0813,1.0137,32.86,-2.244,-0.527,0.824
-0.0142,0.0815,1.0217,33.0,-2.122,-0.427,0.473
-0.0149,0.0845,1.019,32.91,-2.29,-0.206,0.504
-0.0115,0.0852,1.0244,33.0,-2.374,-0.542,0.504
-0.0027,0.0847,1.02,32.91,-2.221,-0.382,0.733
-0.0051,0.0825,1.0159,32.86,-2.099,-0.16,0.664
-0.0144,0.0803,1.0217,32.86,-2.069,-0.473,0.687
-0.0076,0.0825,1.0159,32.86,-2.145,-0.145,0.641
-0.0081,0.084,1.0176,32.95,-2.351,-0.496,0.855
-0.0017,0.0752,1.0173,32.95,-2.718,-1.053,0.565
-0.0139,0.0854,1.0203,33.0,-2.13,-0.45,0.733
-0.0002,0.0884,1.0154,32.91,-2.267,-0.382,0.557
-0.0071,0.0813,1.0244,32.91,-2.168,-0.336,0.573
-0.0093,0.0852,1.0139,32.91,-2.374,-0.382,0.573
-0.0076,0.0813,1.0388,32.95,-1.992,-0.328,0.55
-0.0103,0.0859,1.0366,32.95,-2.16,-0.427,0.58
-0.0112,0.0811,1.0251,33.0,-2.16,-0.489,0.702
-0.012,0.0862,1.0281,32.91,-2.053,-0.313,0.557
-0.0161,0.0928,1.0393,33.0,-1.878,-0.023,0.55
-0.0024,0.0864,1.0193,32.91,-2.244,-0.405,0.672
-0.0068,0.0874,1.0012,33.0,-2.611,-0.42,0.641
-0.0076,0.0825,1.0308,32.91,-2.145,-0.458,0.656
-0.0071,0.0781,1.0107,32.91,-2.137,-0.237,0.656
-0.009,0.0847,1.0127,32.95,-2.351,-0.443,0.763
-0.0144,0.0791,1.0178,32.86,-2.244,-0.573,0.588
-0.0125,0.0876,1.0271,32.86,-2.214,-0.412,0.687
-0.0129,0.0862,1.0198,32.86,-2.13,-0.473,0.626
-0.0142,0.0793,1.0176,32.91,-2.183,-0.244,0.634
-0.0093,0.0825,1.0203,32.91,-2.183,-0.16,0.817
-0.0103,0.0801,1.0205,33.0,-2.244,-0.481,0.542
-0.0081,0.0864,1.0212,33.0,-2.427,-0.489,0.687
-0.0144,0.0825,1.0159,32.86,-2.466,-0.374,0.595
-0.0046,0.082,1.0171,32.86,-2.122,-0.191,0.649
-0.0068,0.0779,1.0232,32.81,-2.29,-0.435,0.771
-0.0061,0.0784,1.0105,32.95,-2.26,-0.389,0.588
-0.0117,0.0833,1.0151,32.81,-2.359,-0.618,0.641
-0.0066,0.0884,1.019,32.81,-2.26,-0.328,0.756
-0.0115,0.082,1.022,33.0,-2.237,-0.374,0.756
-0.0137,0.084,1.011,32.91,-2.168,-0.397,0.824
-0.0125,0.0825,1.0156,32.86,-2.298,-0.443,0.611
-0.0146,0.0842,1.0283,32.95,-2.252,-0.427,0.565
-0.0137,0.0879,1.0222,32.95,-2.137,-0.298,0.71
-0.012,0.0847,1.0261,32.95,-2.038,-0.321,0.504
-0.0068,0.0857,1.0178,32.91,-2.282,-0.435,0.702
-0.0105,0.0901,1.0242,32.91,-2.137,-0.45,0.71
-0.0085,0.0837,1.0208,32.91,-2.107,-0.42,0.618
-0.01,0.0847,1.0151,32.91,-2.16,-0.489,0.748
-0.0105,0.0903,1.0256,32.95,-2.13,-0.29,0.687
-0.0181,0.0813,1.0171,32.86,-2.107,-0.435,0.634
-0.0063,0.0894,1.0376,32.95,-2.053,-0.328,0.74
-0.0144,0.0852,1.0281,32.91,-2.237,-0.427,0.695
-0.0081,0.0852,1.0164,32.91,-2.229,-0.351,0.626
-0.0125,0.0867,1.0073,32.81,-2.168,-0.542,0.679
-0.0085,0.0847,1.022,32.91,-2.328,-0.473,0.824
-0.0107,0.0852,1.0295,32.95,-2.198,-0.267,0.573
-0.0129,0.0835,1.0183,32.95,-2.122,-0.321,0.58
-0.0085,0.0876,1.0044,32.95,-2.16,-0.344,0.588
-0.0046,0.0835,1.0103,32.81,-2.206,-0.489,0.611
-0.0085,0.0847,1.0178,32.91,-2.344,-0.366,0.511
-0.0042,0.0872,1.0164,32.91,-2.366,-0.679,0.702
-0.0049,0.084,1.0059,32.91,-2.496,-0.137,0.618
-0.0103,0.0872,1.0303,32.86,-2.321,-0.443,0.542
-0.0117,0.0842,1.0273,32.95,-2.466,-0.534,0.603
-0.0088,0.0886,1.0215,32.86,-2.214,-0.237,0.687
-0.0149,0.0786,1.0127,32.95,-2.16,-0.496,0.847
-0.0173,0.0891,1.0183,32.81,-2.389,-0.237,0.664
-0.0098,0.082,1.0186,32.95,-2.13,-0.359,0.786
-0.0068,0.083,1.0215,32.91,-2.305,-0.496,0.618
-0.0085,0.0886,1.0203,32.91,-2.153,-0.29,0.527
-0.012,0.0869,1.0271,33.0,-2.038,-0.618,0.664
-0.0071,0.0818,1.0161,32.91,-2.344,-0.595,0.718
-0.0063,0.0833,1.0144,32.91,-1.985,-0.412,0.87
-0.0051,0.0881,0.9917,32.95,-2.206,-0.527,0.618
-0.0061,0.0771,0.9983,32.95,-2.374,-0.481,0.687
-0.011,0.0918,1.0178,32.95,-2.473,-0.305,0.458
-0.0132,0.0859,1.0334,32.95,-2.008,-0.519,0.779
-0.0103,0.0911,1.0139,32.86,-2.282,-0.382,0.504
-0.01,0.0864,1.0215,32.86,-2.214,-0.321,0.565
-0.0168,0.0867,1.0251,32.95,-2.122,-0.389,0.634
-0.0059,0.0808,1.0232,32.95,-2.16,-0.466,0.756
-0.0076,0.0842,1.0232,32.95,-2.031,-0.557,0.702
-0.0061,0.0864,1.0144,32.91,-2.183,-0.321,0.74
-0.0024,0.0811,1.0229,32.91,-2.198,-0.397,0.534
-0.009,0.0876,1.0205,32.91,-2.168,-0.366,0.611
-0.0117,0.084,1.0217,32.91,-2.275,-0.366,0.695
-0.0173,0.0918,1.0198,32.91,-2.084,-0.191,0.802
-0.0017,0.0854,1.031,32.91,-2.023,-0.489,0.641
-0.0076,0.0835,1.0203,33.0,-2.282,-0.382,0.71
-0.0164,0.0801,1.03,33.0,-1.763,-0.397,0.71
-0.0068,0.0813,1.0288,32.91,-2.168,-0.366,0.573
-0.0027,0.0864,1.0107,33.0,-2.229,-0.389,0.611
-0.0161,0.0886,1.0242,32.95,-2.168,-0.45,0.557
-0.0132,0.082,1.0239,32.86,-2.267,-0.412,0.542
-0.0166,0.0869,1.0251,32.95,-2.046,-0.489,0.58
-0.0063,0.0847,1.0186,32.86,-2.29,-0.305,0.534
-0.0125,0.0857,1.0276,32.86,-2.137,-0.374,0.748
-0.0105,0.0872,1.0103,32.95,-2.168,-0.489,0.687
-0.009,0.0825,1.0271,32.86,-2.321,-0.427,0.557
-0.0076,0.0874,1.0154,32.95,-2.336,-0.55,0.641
-0.0144,0.0884,1.0188,32.95,-2.069,-0.412,0.565
-0.0083,0.0867,1.0173,32.95,-2.137,-0.466,0.725
0.0,0.0847,1.0154,32.95,-2.29,-0.305,0.565
-0.01,0.0859,1.0273,32.95,-2.206,-0.282,0.542
-0.0105,0.0876,1.0225,32.95,-2.16,-0.611,0.733
-0.0085,0.0818,1.0229,32.95,-2.115,-0.397,0.672
-0.0161,0.0837,1.0159,32.95,-2.221,-0.328,0.656
-0.0083,0.0852,1.0266,32.86,-2.298,-0.397,0.534
-0.0093,0.0842,1.0193,32.86,-2.435,-0.42,0.588
-0.01,0.0845,1.0188,32.95,-2.305,-0.328,0.588
-0.0085,0.0847,1.0176,32.86,-2.191,-0.534,0.687
-0.0066,0.0813,1.0137,32.95,-1.969,-0.366,0.595
-0.0146,0.0813,1.0288,33.05,-1.885,-0.26,0.687
-0.0149,0.0847,1.0198,32.91,-2.29,-0.557,0.603
-0.0083,0.0837,1.0151,32.86,-1.916,-0.252,0.855
-0.0105,0.0796,1.0103,32.91,-1.832,-0.145,0.748
-0.0078,0.0786,1.0278,32.91,-2.008,-0.198,0.718
-0.0105,0.0867,1.0293,32.91,-2.252,-0.45,0.748
-0.0107,0.0828,1.0322,32.81,-2.321,-0.672,0.885
-0.0137,0.0845,1.0271,33.0,-2.267,-0.13,0.595
-0.0115,0.0859,1.0188,33.0,-2.206,-0.443,0.763
-0.0125,0.0874,1.0203,32.91,-2.13,-0.45,0.656
-0.0032,0.0815,1.0098,32.86,-2.107,-0.366,0.847
-0.0105,0.0867,1.0215,32.91,-2.252,-0.389,0.565
-0.0085,0.0874,1.0232,32.95,-2.328,-0.55,0.74
-0.0054,0.0884,1.0156,32.86,-2.168,-0.351,0.618
-0.0044,0.0857,1.0349,32.86,-2.267,-0.405,0.565
-0.0164,0.0886,1.0127,33.05,-1.901,-0.237,0.603
-0.0173,0.0898,1.0273,32.86,-2.13,-0.336,0.794
-0.0122,0.0884,1.0273,32.95,-2.13,-0.351,0.672
-0.0046,0.0867,1.0286,32.95,-2.038,-0.244,0.817
-0.0115,0.0815,1.0286,32.95,-2.252,-0.351,0.641
-0.0151,0.0862,1.0237,32.95,-2.298,-0.634,0.58
-0.0129,0.0823,1.0261,32.95,-2.115,-0.389,0.779
-0.01,0.0869,1.0164,32.95,-2.206,-0.427,0.603
-0.0071,0.0903,1.0178,32.95,-2.168,-0.366,0.74
-0.0073,0.083,1.0354,32.86,-2.183,-0.618,0.748
-0.0117,0.0913,1.0234,32.86,-2.153,-0.481,0.466
-0.0061,0.0781,1.0171,33.05,-2.069,-0.344,0.656
-0.0125,0.0857,1.0247,32.86,-2.244,-0.29,0.534
-0.0076,0.0842,1.0254,32.86,-2.214,-0.336,0.55
-0.009,0.0845,1.0244,32.86,-2.198,-0.443,0.695
-0.0115,0.0825,1.0151,32.91,-1.954,-0.305,0.565
-0.0129,0.0813,1.0229,32.91,-2.107,-0.382,0.557
-0.0156,0.085,1.0181,33.0,-2.183,-0.527,0.527
-0.0095,0.0862,1.022,32.91,-2.252,-0.359,0.641
-0.0127,0.0808,1.02,32.81,-2.168,-0.351,0.725
-0.0054,0.0845,1.0308,32.91,-2.344,-0.427,0.443
-0.012,0.0918,1.0149,32.91,-2.198,-0.359,0.55
-0.0122,0.093,1.0205,32.91,-2.183,-0.366,0.489
-0.0127,0.0864,1.0278,32.91,-2.244,-0.466,0.618
-0.0073,0.0867,1.0288,33.0,-2.092,-0.511,0.626
-0.0156,0.0896,1.0229,32.91,-2.137,-0.397,0.74
-0.0083,0.0796,1.0249,32.91,-2.26,-0.527,0.634
-0.0112,0.0842,1.0225,32.91,-2.298,-0.321,0.733
-0.009,0.0811,1.0203,32.95,-2.229,-0.42,0.649
-0.0088,0.0872,1.0254,32.86,-2.092,-0.45,0.595
-0.0051,0.0872,1.0205,32.95,-2.267,-0.481,0.672
-0.0078,0.0884,1.0178,32.86,-2.069,-0.382,0.542
-0.0029,0.0808,1.0251,32.95,-2.176,-0.366,0.504
-0.0073,0.0786,1.0212,32.95,-2.069,-0.496,0.664
-0.0166,0.085,1.0181,32.86,-2.244,-0.389,0.496
-0.0083,0.0852,1.022,32.95,-2.183,-0.183,0.656
-0.0156,0.092,1.0149,32.86,-2.244,-0.443,0.58
-0.0061,0.0837,1.0256,33.05,-2.137,-0.336,0.565
-0.0088,0.083,1.0271,32.86,-2.244,-0.336,0.702
-0.009,0.0842,1.0269,32.95,-2.13,-0.542,0.817
-0.0095,0.0842,1.0261,32.95,-2.023,-0.42,0.748
-0.0134,0.0825,1.0215,32.91,-2.168,-0.359,0.725
-0.0117,0.0825,1.0269,32.86,-2.282,-0.466,0.412
-0.0122,0.0862,1.0222,32.91,-2.176,-0.389,0.641
-0.0125,0.082,1.0217,32.91,-2.42,-0.466,0.557
-0.0076,0.0833,1.0225,32.91,-2.168,-0.366,0.511
-0.009,0.0867,1.019,32.91,-2.008,-0.427,0.725
-0.0127,0.0864,1.0278,32.91,-2.153,-0.374,0.664
-0.0146,0.0823,1.0393,32.91,-2.046,-0.42,0.534
-0.0095,0.0845,1.0186,32.91,-2.237,-0.305,0.626
-0.0093,0.084,1.0217,32.91,-2.328,-0.351,0.74
-0.0137,0.0803,1.0215,32.91,-2.542,-0.573,0.603
-0.0134,0.0833,1.0251,32.91,-2.489,-0.16,0.58
-0.011,0.0847,1.0227,32.91,-2.252,-0.542,0.771
-0.0071,0.0894,1.0227,32.91,-2.092,-0.58,0.603
-0.0073,0.0828,1.0103,32.91,-2.168,-0.267,0.71
-0.0034,0.0862,1.0225,32.91,-1.939,-0.359,0.702
-0.0059,0.0908,1.0215,32.91,-2.084,-0.267,0.702
-0.0081,0.0852,1.021,32.81,-2.26,-0.206,0.496
-0.012,0.0833,1.0234,32.91,-2.061,-0.45,0.672
-0.012,0.0906,1.0198,32.95,-2.359,-0.641,0.771
-0.0071,0.0847,1.0234,32.86,-2.092,-0.405,0.489
-0.0107,0.0889,1.0247,33.05,-2.29,-0.305,0.687
-0.0117,0.0879,1.0217,32.86,-2.183,-0.527,0.565
-0.0115,0.0823,1.02,32.95,-2.092,-0.397,0.58
-0.0083,0.0837,1.0225,32.95,-2.26,-0.351,0.573
-0.0017,0.0935,1.021,32.95,-2.176,-0.336,0.771
-0.0056,0.0879,1.0212,33.05,-2.206,-0.321,0.641
-0.0122,0.0818,1.0217,32.91,-2.214,-0.237,0.534
-0.0144,0.0815,1.0244,33.0,-2.321,-0.557,0.611
-0.0107,0.0815,1.0261,32.91,-2.29,-0.389,0.641
-0.0134,0.0798,1.0325,32.91,-2.244,-0.527,0.786
-0.0151,0.0908,1.0137,32.91,-2.244,-0.389,0.641
-0.0088,0.0784,1.0239,33.0,-2.107,-0.374,0.626
-0.0117,0.082,1.0339,32.95,-2.13,-0.466,0.695
-0.0088,0.0884,1.0205,32.95,-2.122,-0.504,0.626
-0.012,0.0764,1.0408,32.95,-1.969,-0.55,0.641
-0.0051,0.0884,1.0266,32.95,-2.198,-0.542,0.718
-0.0061,0.0889,1.0186,32.95,-2.282,-0.397,0.573
-0.0183,0.0833,1.0327,33.05,-2.031,-0.237,0.664
-0.0063,0.082,1.0278,32.91,-2.099,-0.366,0.565
-0.0117,0.084,1.02,32.86,-2.176,-0.42,0.656
-0.0117,0.0789,1.022,33.0,-2.229,-0.328,0.634
-0.0115,0.0862,1.0208,32.95,-2.115,-0.328,0.779
-0.0078,0.0847,1.0193,32.91,-2.183,-0.427,0.496
-0.0073,0.0803,1.0125,32.95,-2.153,-0.542,0.557
-0.0161,0.0842,1.0173,33.0,-2.282,-0.359,0.458
-0.0039,0.0864,1.0176,33.0,-2.191,-0.504,0.847
-0.0032,0.082,1.0281,33.0,-2.168,-0.458,0.603
-0.0063,0.082,1.0137,32.91,-2.221,-0.214,0.573
-0.0149,0.0857,1.0239,32.91,-2.504,-0.412,0.748
-0.0129,0.0867,1.0193,33.09,-2.229,-0.511,0.626
-0.0083,0.0808,1.0242,32.91,-2.183,-0.405,0.695
-0.0083,0.0879,1.0183,32.91,-2.168,-0.29,0.534
-0.0166,0.0857,1.0232,32.91,-2.107,-0.397,0.664
-0.0115,0.0798,1.011,33.0,-2.275,-0.336,0.71
-0.0085,0.0862,1.0273,32.86,-2.275,-0.443,0.679
-0.0122,0.0884,1.021,32.95,-2.26,-0.573,0.649
-0.01,0.0862,1.0271,32.95,-2.115,-0.504,0.626
-0.0134,0.0857,1.0239,32.95,-2.313,-0.473,0.618
-0.01,0.0828,1.019,32.95,-2.252,-0.313,0.809
-0.0039,0.0842,1.0232,32.86,-2.122,-0.397,0.641
-0.0095,0.0833,1.0273,32.95,-2.107,-0.351,0.649
-0.0046,0.0872,1.0178,32.95,-2.069,-0.664,0.641
-0.0122,0.0813,1.0183,32.91,-2.176,-0.511,0.351
-0.0125,0.0803,1.0237,33.0,-2.076,-0.42,0.641
-0.0066,0.0837,1.0244,33.0,-1.985,-0.443,0.634
-0.0083,0.0774,1.0244,32.91,-2.115,-0.427,0.725
-0.0085,0.082,1.0244,32.91,-2.275,-0.298,0.771
-0.0171,0.0879,1.0183,32.91,-2.084,-0.359,0.534
-0.0081,0.0864,1.0276,32.91,-2.092,-0.427,0.55
-0.01,0.0842,1.0283,32.91,-2.221,-0.382,0.687
-0.0134,0.0815,1.0256,32.91,-2.084,-0.366,0.748
-0.0088,0.085,1.0171,33.0,-2.305,-0.305,0.664
-0.0063,0.0791,1.0112,32.91,-2.13,-0.321,0.809
-0.0054,0.0854,1.0125,32.91,-2.397,-0.534,0.527
-0.0076,0.0874,1.0259,32.91,-2.366,-0.481,0.565
-0.0127,0.0928,1.0371,33.0,-2.74,-0.626,0.725
-0.009,0.0872,1.0259,33.0,-2.229,-0.366,0.504
-0.011,0.085,1.0188,33.0,-2.198,-0.542,0.832
-0.0139,0.085,1.0701,32.91,-1.733,-0.328,0.725
-0.0142,0.0867,1.0259,32.91,-2.168,-0.634,0.641
-0.0146,0.0862,1.022,33.09,-2.168,-0.344,0.656
-0.009,0.0828,1.0251,33.0,-2.214,-0.275,0.626
-0.0056,0.0862,1.0315,32.91,-2.145,-0.489,0.679
-0.0129,0.0828,1.0193,33.0,-2.252,-0.374,0.55
-0.0054,0.0842,1.0222,32.91,-2.107,-0.336,0.618
-0.0085,0.0833,1.0232,32.91,-2.29,-0.496,0.641
-0.0073,0.0786,1.0193,32.91,-2.13,-0.435,0.664
-0.0142,0.0823,1.0193,33.0,-2.191,-0.618,0.672
-0.0134,0.084,1.0161,32.91,-2.298,-0.511,0.618
-0.0071,0.083,1.0195,33.0,-1.969,-0.198,0.695
-0.01,0.0847,1.0215,33.0,-2.214,-0.45,0.573
-0.0122,0.0852,1.0244,32.91,-2.252,-0.611,0.496
-0.0137,0.0813,1.0146,32.91,-2.069,-0.542,0.565
-0.0081,0.0845,1.0247,32.95,-2.145,-0.382,0.42
-0.0115,0.0815,1.0178,32.86,-2.183,-0.405,0.756
-0.012,0.0833,1.0137,32.95,-2.015,-0.618,0.588
-0.0054,0.0833,1.0234,33.0,-2.244,-0.565,0.641
-0.0122,0.0823,1.0217,32.91,-2.153,-0.458,0.664
-0.0068,0.0806,1.0215,33.0,-2.107,-0.321,0.672
-0.0137,0.0852,1.0181,32.91,-2.107,-0.321,0.557
-0.0078,0.0867,1.0215,33.0,-2.504,-0.389,0.756
-0.0088,0.0823,1.0247,32.91,-2.053,-0.496,0.618
-0.0132,0.0859,1.0186,32.91,-2.282,-0.55,0.695
-0.0068,0.0864,1.0227,33.0,-2.237,-0.489,0.603
-0.0103,0.0864,1.0154,33.0,-2.351,-0.511,0.618
-0.0139,0.0793,1.0217,32.95,-2.206,-0.42,0.725
-0.0083,0.0884,1.0239,32.86,-2.321,-0.42,0.847
-0.0068,0.0801,1.0156,33.05,-2.275,-0.466,0.519
-0.0122,0.0842,1.0293,32.86,-2.275,-0.534,0.649
-0.0076,0.0837,1.0159,33.0,-2.321,-0.321,0.618
-0.0122,0.0818,1.0247,32.95,-2.305,-0.443,0.672
-0.009,0.0859,1.0288,32.95,-2.061,-0.458,0.618
-0.0146,0.0867,1.0134,32.95,-2.191,-0.389,0.611
-0.0054,0.0852,1.0347,32.91,-2.405,-0.336,0.71
-0.0017,0.0798,1.0217,32.95,-2.168,-0.351,0.809
-0.0134,0.0889,1.0273,32.81,-2.328,-0.382,0.595
-0.0142,0.0779,1.0261,32.91,-2.092,-0.382,0.641
-0.0095,0.0811,1.0229,32.91,-2.282,-0.282,0.618
-0.011,0.0852,1.0156,33.0,-2.031,-0.252,0.672
-0.0103,0.0854,1.0239,32.91,-2.305,-0.366,0.458
-0.0078,0.0864,1.0188,32.91,-2.229,-0.313,0.649
-0.0132,0.0852,1.0186,33.0,-2.29,-0.382,0.71
-0.0034,0.0845,1.0186,33.0,-2.176,-0.443,0.573
-0.0078,0.0891,1.0286,32.91,-2.252,-0.489,0.573
-0.012,0.0845,1.0159,33.0,-2.237,-0.336,0.573
-0.01,0.0798,1.0181,33.09,-2.0,-0.282,0.588
-0.0078,0.0874,1.0208,32.81,-2.13,-0.366,0.588
-0.0046,0.083,1.0295,32.91,-2.16,-0.496,0.641
-0.0115,0.0837,1.0234,33.09,-2.221,-0.359,0.748
-0.01,0.0913,1.0303,32.95,-2.046,-0.481,0.626
-0.0144,0.0876,1.0254,32.95,-2.298,-0.366,0.557
-0.0139,0.0784,1.0186,32.95,-2.046,-0.405,0.656
-0.0098,0.0842,1.0198,32.86,-2.328,-0.45,0.733
-0.0125,0.0781,1.0171,32.95,-2.176,-0.366,0.656
-0.0137,0.0842,1.0264,32.95,-2.145,-0.374,0.679
-0.009,0.0867,1.02,32.91,-2.206,-0.252,0.504
-0.011,0.0813,1.011,32.91,-2.244,-0.496,0.756
-0.0071,0.083,1.0234,33.0,-2.206,-0.527,0.603
-0.0073,0.082,1.0283,33.0,-2.29,-0.359,0.832
-0.0115,0.0879,1.0251,32.91,-2.153,-0.374,0.725
-0.0098,0.0806,1.0261,33.0,-2.191,-0.573,0.748
-0.0083,0.0759,1.0166,33.0,-2.313,-0.275,0.687
-0.01,0.0837,1.0171,33.0,-2.214,-0.206,0.672
-0.0076,0.0837,1.0227,32.91,-2.198,-0.42,0.702
-0.0093,0.0864,1.0249,32.91,-2.26,-0.29,0.718
-0.0073,0.0825,1.0208,33.0,-2.214,-0.305,0.641
-0.009,0.0862,1.0173,32.91,-2.16,-0.305,0.786
-0.0051,0.0872,1.0122,32.95,-2.206,-0.298,0.481
-0.0107,0.0801,1.0251,33.05,-2.244,-0.42,0.611
-0.0068,0.0845,1.0303,32.95,-2.214,-0.389,0.649
-0.0103,0.0845,1.0266,32.95,-2.221,-0.359,0.748
-0.0093,0.0842,1.0178,32.95,-2.206,-0.405,0.534
-0.0073,0.0852,1.0122,32.95,-2.26,-0.313,0.748
-0.0139,0.0811,1.0271,32.95,-2.183,-0.397,0.618
-0.0112,0.084,1.0205,32.86,-2.359,-0.282,0.687
-0.0081,0.0869,1.0168,32.86,-2.153,-0.282,0.687
-0.0146,0.0818,1.0144,33.0,-2.084,-0.412,0.573
-0.011,0.0869,1.0244,32.95,-2.115,-0.534,0.641
-0.0103,0.083,1.0164,33.0,-2.374,-0.389,0.84
-0.0195,0.0864,1.0181,32.95,-2.344,-0.519,0.473
-0.0056,0.083,1.0227,32.91,-2.275,-0.504,0.786
-0.011,0.0818,1.0198,32.91,-2.298,-0.412,0.687
-0.0103,0.0886,1.0234,32.91,-2.198,-0.321,0.725
-0.011,0.092,1.0225,32.91,-2.069,-0.351,0.809
-0.0107,0.0874,1.0344,32.91,-2.298,-0.321,0.496
-0.0098,0.0842,1.02,33.0,-2.145,-0.351,0.473
-0.0061,0.0884,1.0249,32.91,-2.229,-0.397,0.74
-0.0083,0.0828,1.0251,33.0,-2.336,-0.527,0.557
-0.0063,0.0796,1.0291,33.0,-2.076,-0.58,0.565
-0.0107,0.0815,1.0144,33.0,-2.191,-0.466,0.58
-0.0088,0.085,1.0144,32.91,-2.397,-0.115,0.718
-0.0085,0.0818,1.0093,33.05,-2.321,-0.435,0.55
-0.0129,0.0859,1.0088,32.95,-2.221,-0.374,0.611
-0.0027,0.0857,1.0176,33.05,-2.153,-0.435,0.595
-0.0056,0.0847,1.0168,32.95,-2.267,-0.473,0.664
-0.0056,0.0813,1.0251,32.95,-2.237,-0.573,0.443
-0.0122,0.0779,1.0195,32.95,-2.107,-0.466,0.611
-0.0134,0.0833,1.0271,32.86,-2.443,-0.359,0.504
-0.0103,0.0913,1.0256,33.09,-2.275,-0.45,0.687
-0.0083,0.0864,1.0227,32.91,-2.29,-0.344,0.573
-0.0173,0.0847,1.012,32.91,-2.313,-0.466,0.817
-0.0088,0.0894,1.0171,32.91,-2.244,-0.405,0.504
-0.0078,0.0886,1.0212,32.91,-2.244,-0.344,0.466
-0.0093,0.0881,1.0193,32.91,-2.183,-0.496,0.649
-0.009,0.0847,1.0203,32.91,-2.382,-0.313,0.71
-0.01,0.0881,1.0183,33.0,-2.191,-0.389,0.695
-0.0088,0.0862,1.0181,32.91,-2.214,-0.389,0.595
-0.0127,0.0842,1.033,33.0,-2.351,-0.328,0.649
-0.0112,0.085,1.031,33.0,-2.336,-0.313,0.641
-0.0122,0.082,1.019,33.0,-2.191,-0.473,0.603
-0.0051,0.0896,1.0168,33.0,-2.191,-0.351,0.573
-0.0151,0.0793,1.0208,32.91,-2.198,-0.458,0.534
-0.01,0.0837,1.0227,33.0,-2.214,-0.374,0.74
-0.0154,0.083,1.0232,33.05,-2.13,-0.321,0.756
-0.0083,0.0854,1.0176,32.91,-2.176,-0.366,0.573
-0.0046,0.085,1.0291,32.91,-2.313,-0.397,0.565
-0.01,0.0823,1.03,32.95,-2.122,-0.366,0.611
-0.0083,0.0825,1.0256,32.95,-2.275,-0.504,0.557
-0.0059,0.0823,1.022,33.05,-2.328,-0.489,0.733
-0.0083,0.0842,1.0242,32.95,-2.145,-0.588,0.588
-0.0061,0.0872,1.0142,33.05,-2.198,-0.557,0.542
-0.0107,0.0854,1.0286,33.0,-2.29,-0.611,0.687
-0.002,0.0869,1.0237,32.95,-2.137,-0.351,0.634
-0.0156,0.0833,1.0254,33.09,-2.237,-0.412,0.588
-0.0098,0.0825,1.0286,32.91,-2.221,-0.328,0.672
-0.0139,0.0857,1.019,32.91,-2.244,-0.58,0.656
-0.0032,0.0815,1.0183,33.0,-1.992,-0.481,0.756
-0.0103,0.082,1.0195,33.0,-2.145,-0.374,0.733
-0.0117,0.0876,1.0247,33.0,-2.16,-0.466,0.634
-0.0071,0.0852,1.0283,32.91,-2.298,-0.611,0.756
-0.0203,0.0854,1.0217,32.91,-2.206,-0.435,0.695
-0.0115,0.0845,1.0159,33.09,-2.084,-0.458,0.809
-0.0142,0.0862,1.0154,32.91,-2.137,-0.603,0.649
-0.0076,0.0798,1.0249,32.91,-2.122,-0.489,0.55
-0.009,0.0837,1.0215,33.0,-2.206,-0.443,0.87
-0.0144,0.0854,1.021,33.0,-2.16,-0.58,0.573
-0.012,0.0815,1.0271,33.0,-2.282,-0.427,0.611
-0.0129,0.0823,1.0171,33.0,-2.267,-0.382,0.588
-0.0056,0.0886,1.0229,32.91,-2.145,-0.58,0.573
-0.0107,0.0837,1.0247,32.91,-2.153,-0.336,0.733
-0.012,0.0867,1.0205,32.95,-2.267,-0.435,0.58
-0.0076,0.0835,1.022,32.95,-2.176,-0.351,0.649
-0.0164,0.0801,1.0186,32.95,-2.267,-0.458,0.71
-0.0112,0.0852,1.0129,32.95,-2.122,-0.366,0.534
-0.0115,0.0818,1.0171,32.95,-2.023,-0.466,0.733
-0.0125,0.0862,1.0129,33.05,-2.206,-0.344,0.595
-0.0042,0.0872,1.0166,32.95,-2.321,-0.237,0.542
-0.0142,0.0845,1.0139,32.95,-2.16,-0.305,0.557
-0.0046,0.0879,1.0271,33.0,-2.214,-0.45,0.687
-0.012,0.0779,1.0122,32.95,-2.168,-0.16,0.45
-0.0049,0.0874,1.0249,32.95,-2.16,-0.229,0.618
-0.0012,0.0842,1.0103,33.0,-2.397,-0.351,0.527
-0.0051,0.0837,1.0232,33.0,-2.092,-0.427,0.435
-0.0085,0.0798,1.0271,32.91,-1.985,-0.443,0.618
-0.0049,0.0798,1.0159,32.91,-2.198,-0.321,0.74
-0.009,0.0808,1.0239,33.09,-2.122,-0.435,0.664
-0.0112,0.083,1.0212,33.0,-2.397,-0.489,0.603
-0.0122,0.0874,1.0317,33.0,-2.137,-0.511,0.71
-0.0112,0.0854,1.0215,33.0,-2.092,-0.473,0.603
-0.0115,0.0801,1.0164,32.91,-2.069,-0.489,0.519
-0.0103,0.085,1.0256,32.91,-2.191,-0.344,0.733
-0.0068,0.0835,1.0354,33.0,-2.13,-0.359,0.542
-0.0125,0.0928,1.0181,33.0,-2.153,-0.412,0.702
-0.0037,0.0818,1.0181,33.0,-2.069,-0.405,0.771
-0.0173,0.0859,1.0125,32.91,-2.061,-0.321,0.649
-0.009,0.0815,1.0188,32.91,-2.145,-0.374,0.878
-0.0054,0.083,1.0203,32.91,-2.382,-0.16,0.412
-0.0054,0.0857,1.0161,32.91,-2.374,-0.519,0.71
-0.0061,0.0845,1.0161,33.09,-2.382,-0.275,0.527
-0.0122,0.0818,1.021,32.91,-2.023,-0.321,0.817
-0.0044,0.0811,1.0273,32.95,-2.206,-0.405,0.573
-0.011,0.0769,1.02,32.95,-2.298,-0.519,0.634
-0.0068,0.0796,1.0259,32.95,-2.221,-0.588,0.511
-0.012,0.0798,1.0237,32.95,-2.328,-0.405,0.71
-0.0095,0.0869,1.0215,33.05,-2.321,-0.427,0.634
-0.0103,0.0789,1.0217,32.95,-2.229,-0.458,0.679
-0.0088,0.083,1.0134,33.0,-2.183,-0.244,0.595
-0.0076,0.085,1.0186,32.86,-2.023,-0.42,0.534
-0.0105,0.0828,1.0234,33.0,-2.092,-0.29,0.588
-0.0127,0.0813,1.0259,32.91,-2.229,-0.55,0.695
-0.0146,0.0823,1.0168,32.91,-2.16,-0.42,0.618
-0.0078,0.0823,1.0261,33.0,-2.0,-0.359,0.481
-0.0085,0.0898,1.0237,32.95,-2.16,-0.58,0.725
-0.0046,0.0867,1.019,32.95,-2.107,-0.382,0.511
-0.0117,0.0916,1.019,32.95,-2.046,-0.359,0.511
-0.0098,0.0793,1.0215,32.95,-2.351,-0.458,0.565
-0.0129,0.0789,1.0251,32.91,-2.16,-0.481,0.71
-0.0046,0.0859,1.0195,33.0,-2.153,-0.641,0.649
-0.0112,0.0854,1.0173,33.0,-2.16,-0.405,0.603
-0.0129,0.0833,1.0281,32.95,-2.168,-0.427,0.618
-0.0129,0.0791,1.0193,33.05,-2.0,-0.405,0.649
-0.009,0.0852,1.0183,33.0,-2.275,-0.458,0.763
-0.0078,0.0803,1.0188,32.91,-2.237,-0.275,0.756
-0.0088,0.0813,1.0198,33.0,-2.221,-0.519,0.87
-0.0095,0.0879,1.0193,33.09,-2.313,-0.366,0.565
-0.0144,0.085,1.0144,32.95,-2.183,-0.198,0.595
-0.0073,0.0828,1.0122,33.05,-2.191,-0.405,0.634
-0.0078,0.0842,1.0193,33.0,-2.351,-0.366,0.695
-0.0039,0.0889,1.0222,32.91,-2.13,-0.206,0.519
-0.0071,0.0781,1.0295,32.95,-2.198,-0.405,0.634
-0.0098,0.0789,1.0166,33.05,-2.237,-0.443,0.672
-0.0081,0.0835,1.0198,32.95,-2.13,-0.389,0.664
-0.0134,0.0867,1.0159,33.0,-2.069,-0.473,0.664
-0.0129,0.0852,1.0217,32.86,-2.183,-0.42,0.573
-0.009,0.085,1.0288,33.05,-2.183,-0.427,0.702
-0.0107,0.0864,1.0193,33.0,-2.13,-0.557,0.664
-0.0042,0.0884,1.0205,33.09,-2.267,-0.405,0.687
-0.0146,0.0874,1.0261,32.81,-2.282,-0.336,0.473
-0.0103,0.0828,1.0181,33.05,-2.336,-0.275,0.534
-0.0154,0.084,1.0222,32.95,-2.351,-0.397,0.679
-0.0066,0.0857,1.0171,32.95,-2.13,-0.313,0.748
-0.0115,0.082,1.0242,33.0,-2.092,-0.412,0.687
-0.0112,0.0806,1.0205,33.09,-2.244,-0.298,0.611
-0.01,0.0854,1.0195,33.05,-2.305,-0.328,0.656
-0.0068,0.0854,1.021,32.95,-2.282,-0.252,0.55
-0.012,0.0793,1.0208,32.95,-2.115,-0.351,0.542
-0.0085,0.0852,1.0222,33.0,-2.13,-0.527,0.71
-0.0103,0.0842,1.022,32.91,-2.137,-0.519,0.58
-0.0085,0.0808,1.0205,32.91,-2.176,-0.496,0.542
-0.0098,0.0854,1.0283,32.95,-2.145,-0.427,0.641
-0.0112,0.0857,1.0183,32.91,-2.137,-0.511,0.695
-0.0078,0.0796,1.0291,32.95,-2.26,-0.45,0.649
-0.0139,0.0845,1.0254,33.0,-2.137,-0.389,0.55
-0.0085,0.0835,1.0242,33.0,-2.023,-0.443,0.809
-0.0078,0.083,1.0159,33.0,-2.153,-0.427,0.595
-0.0132,0.0847,1.0166,32.95,-2.076,-0.397,0.649
-0.011,0.0835,1.0254,32.95,-2.107,-0.641,0.763
-0.0005,0.0801,1.0188,32.95,-2.229,-0.42,0.58
-0.0081,0.0798,1.0203,32.95,-2.137,-0.321,0.718
-0.0149,0.0828,1.0188,32.91,-2.145,-0.336,0.695
-0.0059,0.084,1.0151,32.91,-2.145,-0.405,0.634
-0.0122,0.0833,1.0144,33.0,-2.183,-0.45,0.656
-0.009,0.0842,1.0232,32.95,-2.107,-0.313,0.618
-0.0068,0.0857,1.0312,32.95,-2.183,-0.626,0.779
-0.0149,0.0806,1.0127,32.95,-2.092,-0.366,0.618
-0.0107,0.0857,1.0247,32.91,-2.397,-0.618,0.511
-0.0127,0.0823,1.0198,33.0,-2.191,-0.45,0.733
-0.0088,0.0862,1.0234,33.0,-2.015,-0.359,0.611
-0.0076,0.0796,1.0168,32.86,-2.137,-0.481,0.733
-0.0137,0.0833,1.0229,33.05,-2.244,-0.511,0.824
-0.0212,0.0806,1.0271,33.05,-2.115,-0.527,0.687
-0.0129,0.0789,1.02,33.0,-2.26,-0.397,0.565
-0.0139,0.0789,1.0227,32.81,-2.359,-0.443,0.786
-0.0151,0.0815,1.0247,33.0,-2.313,-0.313,0.496
-0.0076,0.0798,1.02,32.95,-1.87,-0.435,0.641
-0.0049,0.0813,1.0183,32.95,-2.145,-0.443,0.756
-0.0073,0.0872,1.0293,33.0,-2.382,-0.313,0.733
-0.0032,0.0864,1.021,32.91,-2.061,-0.344,0.611
-0.0054,0.0879,1.0239,33.0,-2.153,-0.336,0.611
-0.0103,0.0835,1.0232,32.91,-2.122,-0.366,0.725
-0.009,0.0867,1.019,32.95,-2.29,-0.611,0.573
-0.0059,0.0754,1.0232,32.95,-2.099,-0.389,0.748
-0.0059,0.0901,1.0225,33.05,-2.275,-0.389,0.626
-0.0103,0.0842,1.0215,33.05,-2.16,-0.336,0.763
-0.0085,0.0825,1.0215,33.0,-2.267,-0.366,0.748
-0.0098,0.0874,1.0227,33.0,-2.084,-0.45,0.489
-0.01,0.0815,1.0276,33.0,-2.031,-0.351,0.649
-0.0146,0.0864,1.0242,32.91,-2.137,-0.397,0.672
-0.01,0.0823,1.0215,33.0,-2.069,-0.321,0.679
-0.0129,0.0862,1.0293,33.0,-2.13,-0.557,0.634
-0.0063,0.0842,1.0225,32.95,-2.076,-0.588,0.626
-0.0095,0.0889,1.0129,32.95,-2.237,-0.374,0.565
-0.012,0.0842,1.0237,32.95,-2.313,-0.443,0.718
-0.0093,0.0803,1.0151,33.0,-2.26,-0.366,0.695
-0.009,0.085,1.0259,32.95,-2.221,-0.496,0.611
-0.0103,0.0852,1.0288,32.91,-2.275,-0.573,0.672
-0.0076,0.082,1.019,33.0,-2.298,-0.359,0.466
-0.0176,0.0852,1.0242,33.0,-2.29,-0.16,0.702
-0.0137,0.0879,1.0283,33.0,-2.344,-0.412,0.374
-0.0049,0.0825,1.0127,32.91,-2.206,-0.481,0.626
-0.0139,0.0825,1.0269,33.0,-2.137,-0.771,0.702
-0.0081,0.0835,1.0237,32.95,-2.366,-0.511,0.649
-0.0103,0.0806,1.0156,32.95,-2.397,-0.466,0.733
-0.0103,0.0784,1.0259,32.95,-2.137,-0.374,0.443
-0.0127,0.0872,1.0203,32.95,-2.183,-0.504,0.74
-0.0125,0.0815,1.0225,32.86,-2.206,-0.557,0.634
-0.009,0.0769,1.0171,33.0,-2.099,-0.389,0.565
-0.0125,0.0781,1.0125,33.0,-2.076,-0.397,0.534
-0.0129,0.0916,1.0198,33.0,-2.092,-0.153,0.588
-0.0149,0.0813,1.0205,33.0,-2.321,-0.382,0.641
-0.0061,0.0859,1.011,33.05,-2.244,-0.58,0.626
-0.0076,0.0862,1.0195,33.05,-2.244,-0.382,0.763
-0.0115,0.0842,1.0212,33.05,-2.244,-0.359,0.542
-0.0146,0.0857,1.0303,32.95,-2.237,-0.542,0.427
-0.0037,0.0833,1.0198,33.0,-2.275,-0.557,0.687
-0.0066,0.0874,1.0259,33.05,-2.321,-0.542,0.534
-0.0115,0.0857,1.03,32.91,-2.084,-0.305,0.802
-0.0183,0.0806,1.0237,33.0,-2.26,-0.397,0.679
-0.0078,0.0879,1.021,33.09,-2.298,-0.45,0.931
-0.0122,0.0835,1.0215,33.0,-2.191,-0.305,0.504
-0.0122,0.0857,1.0325,33.09,-1.985,-0.588,0.702
-0.0154,0.0815,1.0212,33.0,-2.076,-0.328,0.55
-0.0073,0.0896,1.0132,32.91,-2.191,-0.397,0.71
-0.0142,0.0813,1.0229,33.0,-2.16,-0.405,0.672
-0.011,0.0894,1.0173,32.91,-2.053,-0.275,0.695
-0.0134,0.0808,1.0264,33.0,-2.267,-0.511,0.672
-0.0063,0.0801,0.9963,33.0,-2.733,-0.748,0.511
-0.0078,0.0828,1.0193,33.0,-2.053,-0.176,0.74
-0.0122,0.085,1.0176,33.0,-2.42,-0.489,0.618
-0.0188,0.0747,1.0256,33.0,-1.87,-0.641,0.679
-0.0098,0.0854,1.0186,33.09,-2.107,-0.71,0.672
-0.0093,0.0835,1.0181,33.0,-1.939,-0.252,0.641
-0.0088,0.0835,1.0212,33.0,-2.229,-0.366,0.656
-0.009,0.0857,1.0212,33.0,-2.069,-0.282,0.542
-0.0144,0.0818,1.031,33.0,-2.137,-0.214,0.519
-0.0105,0.0845,1.022,33.0,-2.229,-0.702,0.611
-0.0154,0.0942,1.0166,33.0,-2.252,-0.26,0.626
-0.0122,0.0862,1.0378,33.05,-1.901,-0.267,0.55
-0.0198,0.0874,1.0242,33.05,-2.084,-0.076,0.74
-0.0103,0.0884,1.0193,32.95,-2.618,-0.427,0.771
-0.011,0.0869,1.0203,32.95,-2.168,-0.351,0.656
-0.009,0.0769,1.0271,32.95,-2.137,-0.504,0.641
-0.0056,0.0896,1.0154,32.95,-2.16,-0.389,0.718
-0.011,0.0872,1.0259,32.95,-2.16,-0.786,0.656
-0.0046,0.0837,1.0288,33.05,-2.13,-0.214,0.534
-0.0032,0.0886,1.0146,32.95,-2.176,-0.504,0.748
-0.0132,0.0847,1.0242,32.95,-2.153,-0.473,0.733
-0.0176,0.0867,1.05,33.0,-1.84,-0.229,0.611
-0.0122,0.0879,1.0142,33.09,-2.221,-0.336,0.542
-0.0059,0.0801,1.0244,32.91,-2.198,-0.634,0.641
-0.0144,0.0813,1.0327,32.91,-2.115,-0.458,0.702
-0.0083,0.0901,1.0164,33.09,-2.344,-0.359,0.672
-0.0085,0.0962,1.0071,33.0,-2.878,-0.588,0.565
-0.0137,0.0842,1.0178,33.09,-2.153,-0.29,0.725
-0.012,0.085,1.033,32.91,-2.252,-0.336,0.641
-0.0046,0.082,1.033,33.05,-2.328,-0.351,0.519
-0.0198,0.0872,1.0222,33.05,-2.351,-0.435,0.702
-0.0156,0.0862,1.0188,32.95,-2.038,-0.321,0.443
-0.0088,0.0789,1.0212,33.05,-2.16,-0.55,0.618
-0.0129,0.0823,1.0215,33.0,-2.137,-0.45,0.725
-0.0068,0.0759,1.032,33.05,-2.198,-0.374,0.542
-0.009,0.0857,1.0278,33.0,-2.137,-0.382,0.618
-0.0068,0.0881,1.0283,33.0,-2.198,-0.176,0.74
-0.0076,0.0867,1.0156,33.0,-2.267,-0.542,0.649
-0.0095,0.0859,1.0205,33.0,-2.229,-0.435,0.733
-0.0134,0.0837,1.01,33.05,-2.237,-0.26,0.679
-0.0105,0.0906,1.0203,32.95,-2.405,-0.412,0.794
-0.0073,0.0903,1.0234,32.95,-2.13,-0.366,0.573
-0.0095,0.0857,1.0266,32.95,-2.046,-0.405,0.481
-0.0073,0.0874,1.0254,32.95,-2.122,-0.496,0.672
-0.0093,0.0859,1.0237,33.0,-2.168,-0.45,0.687
-0.0132,0.0833,1.0308,33.0,-2.282,-0.466,0.687
-0.0137,0.0891,1.0161,33.0,-2.298,-0.397,0.618
-0.0105,0.0833,1.0164,33.09,-2.145,-0.397,0.809
-0.0076,0.083,1.0232,33.0,-2.344,-0.321,0.718
-0.0098,0.0842,1.02,33.0,-2.153,-0.275,0.496
-0.0056,0.0811,1.0237,32.95,-2.229,-0.473,0.74
-0.0051,0.0845,1.0205,32.95,-2.214,-0.26,0.672
-0.0056,0.0857,1.0293,33.05,-2.099,-0.412,0.725
-0.012,0.0852,1.0288,33.05,-2.122,-0.466,0.573
-0.0129,0.0835,1.0205,33.0,-2.092,-0.42,0.527
-0.0146,0.0801,1.0171,33.05,-2.412,-0.427,0.611
-0.011,0.0798,1.0383,33.09,-2.214,-0.656,0.603
-0.0073,0.0872,1.0205,33.09,-2.031,-0.466,0.679
-0.0063,0.0789,1.0244,33.0,-2.366,-0.42,0.74
-0.0081,0.084,1.0251,33.0,-2.092,-0.443,0.649
-0.009,0.0842,1.0271,33.05,-2.031,-0.489,0.527
-0.01,0.0815,1.0305,32.95,-2.267,-0.435,0.725
-0.0088,0.0859,1.0212,33.05,-2.237,-0.397,0.603
-0.0071,0.0789,1.02,33.05,-2.221,-0.397,0.542
-0.0142,0.082,1.0134,33.05,-2.137,-0.45,0.511
-0.012,0.0837,1.0266,33.0,-2.153,-0.214,0.557
-0.0063,0.0835,1.0215,33.09,-2.137,-0.481,0.649
-0.009,0.085,1.0186,33.0,-2.351,-0.412,0.55
-0.0083,0.0884,1.022,33.0,-1.977,-0.42,0.702
-0.0137,0.0825,1.0225,33.09,-2.214,-0.282,0.618
-0.0144,0.0815,1.022,33.05,-2.214,-0.611,0.649
-0.0159,0.0803,1.0269,33.05,-2.053,-0.519,0.634
-0.0156,0.0879,1.0203,33.14,-2.13,-0.26,0.771
-0.0017,0.0754,1.0171,33.05,-2.137,-0.58,0.565
-0.0139,0.0811,1.0256,33.05,-2.214,-0.473,0.756
-0.0112,0.0847,1.0222,33.0,-2.198,-0.389,0.634
-0.009,0.085,1.0168,33.0,-2.092,-0.534,0.641
-0.0107,0.0852,1.0281,33.09,-2.29,-0.183,0.55
-0.0034,0.085,1.0251,33.0,-2.023,-0.466,0.74
-0.0115,0.0803,1.0183,33.0,-2.16,-0.542,0.519
-0.011,0.0837,1.0166,33.0,-2.145,-0.481,0.664
-0.0156,0.0859,1.0261,33.05,-2.313,-0.466,0.763
-0.0063,0.0837,1.0142,33.05,-2.176,-0.45,0.618
-0.0095,0.0854,1.0232,33.05,-2.336,-0.313,0.588
-0.0083,0.082,1.0178,33.05,-2.099,-0.542,0.702
-0.0085,0.0847,1.0212,33.05,-2.26,-0.435,0.664
-0.0142,0.0867,1.0208,33.05,-2.237,-0.282,0.664
-0.0142,0.0833,1.0259,33.05,-2.191,-0.321,0.496
-0.0022,0.0842,1.0237,32.95,-2.137,-0.374,0.763
-0.0161,0.0813,1.0171,32.95,-2.244,-0.618,0.611
-0.0093,0.0881,1.0215,33.05,-2.069,-0.282,0.58
-0.0115,0.0881,1.0242,33.05,-2.282,-0.45,0.74
-0.0132,0.0852,1.0286,32.95,-2.389,-0.389,0.664
-0.009,0.0852,1.0229,33.05,-2.313,-0.275,0.771
-0.0164,0.0884,1.0146,33.09,-2.313,-0.427,0.496
-0.0144,0.0837,1.0278,33.09,-2.206,-0.405,0.595
-0.0063,0.0876,1.0161,33.0,-2.16,-0.565,0.595
-0.0171,0.0886,1.0215,33.09,-2.252,-0.519,0.672
-0.0107,0.0801,1.0178,33.0,-2.252,-0.267,0.74
-0.0107,0.0837,1.0181,33.09,-2.191,-0.45,0.542
-0.0132,0.0833,1.0244,33.0,-2.237,-0.397,0.87
-0.012,0.0901,1.0166,33.09,-2.183,-0.397,0.58
-0.0129,0.0837,1.0215,33.0,-2.229,-0.267,0.603
-0.0115,0.0833,1.02,33.09,-2.076,-0.565,0.595
-0.0088,0.0845,1.0208,33.0,-2.168,-0.511,0.679
-0.0151,0.0857,1.0195,33.14,-2.359,-0.489,0.656
-0.0076,0.0864,1.0195,33.05,-2.13,-0.427,0.595
-0.0085,0.0842,1.0251,33.05,-2.229,-0.695,0.496
-0.0039,0.0845,1.0276,33.05,-2.176,-0.244,0.565
-0.0156,0.0837,1.0208,32.95,-2.344,-0.443,0.489
-0.0142,0.0835,1.0183,33.09,-2.191,-0.565,0.603
-0.0095,0.0852,1.0139,33.0,-2.115,-0.389,0.664
-0.0073,0.0857,1.0244,33.0,-2.198,-0.481,0.763
-0.0105,0.0874,1.0249,33.0,-2.26,-0.412,0.573
0.0007,0.085,1.0259,33.0,-2.107,-0.366,0.534
-0.0076,0.0818,1.0171,32.91,-2.031,-0.573,0.519
-0.011,0.0859,1.0227,33.0,-2.328,-0.405,0.885
-0.0073,0.0864,1.0139,32.95,-2.313,-0.458,0.634
-0.0056,0.085,1.0232,33.05,-2.13,-0.611,0.557
-0.0107,0.0854,1.0276,33.05,-2.031,-0.542,0.626
-0.0095,0.0789,1.0171,33.05,-2.13,-0.351,0.634
-0.0151,0.0837,1.0215,33.05,-2.29,-0.542,0.779
-0.0137,0.0891,1.0261,33.09,-2.183,-0.313,0.473
-0.0137,0.0864,1.0198,33.0,-2.382,-0.481,0.771
-0.0137,0.0879,1.0186,33.05,-2.137,-0.496,0.611
-0.0076,0.0835,1.0205,33.05,-2.328,-0.427,0.763
-0.0068,0.0837,1.0171,32.95,-2.122,-0.527,0.672
-0.0103,0.082,1.0254,32.95,-2.206,-0.412,0.664
-0.0112,0.0806,1.0293,33.05,-2.298,-0.374,0.679
-0.0139,0.0862,1.0229,32.95,-2.084,-0.45,0.626
-0.0115,0.083,1.0259,32.95,-2.168,-0.725,0.687
-0.0107,0.0806,1.0168,33.05,-2.244,-0.389,0.794
-0.0166,0.0872,1.0232,33.14,-2.16,-0.573,0.595
-0.0107,0.0859,1.0171,33.05,-2.069,-0.473,0.45
-0.0154,0.0879,1.019,33.05,-2.191,-0.473,0.794
-0.011,0.0813,1.0293,33.05,-2.305,-0.412,0.481
-0.011,0.0872,1.0261,33.14,-2.16,-0.565,0.679
-0.009,0.0872,1.032,33.05,-2.237,-0.473,0.725
-0.0107,0.0803,1.0278,33.05,-2.267,-0.473,0.809
-0.0068,0.0847,1.0205,32.95,-2.214,-0.374,0.664
-0.0059,0.0815,1.0217,33.14,-2.137,-0.427,0.511
-0.0088,0.0854,1.0261,33.0,-2.229,-0.618,0.718
-0.0066,0.0886,1.0261,33.14,-2.313,-0.313,0.695
-0.0068,0.0823,1.0244,33.05,-2.328,-0.405,0.71
-0.0103,0.0828,1.0222,33.05,-2.084,-0.237,0.733
-0.0042,0.0803,1.0208,33.14,-2.198,-0.504,0.634
-0.01,0.0823,1.021,33.05,-1.985,-0.481,0.626
-0.0059,0.0825,1.0266,33.05,-2.092,-0.412,0.779
-0.0112,0.083,1.0222,32.95,-2.107,-0.42,0.641
-0.011,0.0828,1.0249,32.95,-2.313,-0.42,0.656
-0.011,0.0874,1.0171,33.09,-2.214,-0.359,0.656
-0.0122,0.0845,1.0205,33.0,-2.168,-0.496,0.519
-0.0085,0.0898,1.0239,33.09,-2.237,-0.29,0.718
-0.0166,0.0779,1.0222,33.09,-2.366,-0.214,0.58
-0.0093,0.0811,1.0273,33.09,-2.053,-0.611,0.672
-0.0117,0.0789,1.0254,33.0,-2.13,-0.313,0.71
-0.01,0.0881,1.0139,33.0,-2.198,-0.626,0.504
-0.0154,0.0896,1.0193,33.09,-2.313,-0.504,0.542
-0.0159,0.0898,1.0203,33.0,-2.305,-0.183,0.664
-0.0068,0.0864,1.0173,33.0,-2.122,-0.244,0.718
-0.0144,0.0867,1.022,33.09,-2.107,-0.55,0.595
-0.0081,0.0801,1.0193,33.0,-2.191,-0.573,0.634
-0.0061,0.0864,1.0198,33.09,-2.168,-0.427,0.603
-0.0125,0.082,1.0288,33.09,-1.969,-0.618,0.588
-0.0059,0.0925,1.0156,33.09,-2.229,-0.519,0.489
-0.01,0.0876,1.0193,33.09,-2.26,-0.298,0.649
-0.0063,0.0818,1.0203,33.0,-2.229,-0.382,0.649
-0.0105,0.0806,1.0156,33.09,-2.176,-0.397,0.679
-0.0095,0.0845,1.0281,33.09,-2.237,-0.519,0.626
-0.0042,0.0862,1.0249,33.09,-2.214,-0.382,0.458
-0.0093,0.0864,1.0103,33.09,-2.137,-0.328,0.664
-0.011,0.084,1.0173,33.0,-2.275,-0.366,0.725
-0.0088,0.0845,1.0283,33.0,-2.084,-0.45,0.695
-0.0056,0.0859,1.0203,33.0,-1.924,-0.221,0.786
-0.0017,0.0847,1.0156,33.19,-2.168,-0.542,0.649
-0.0066,0.0813,1.0093,33.09,-2.092,-0.214,0.511
-0.0117,0.082,1.0203,33.0,-2.275,-0.336,0.626
-0.0107,0.0872,1.0168,33.0,-2.183,-0.527,0.763
-0.0115,0.0896,1.0251,33.09,-2.252,-0.45,0.672
-0.0161,0.0837,1.0203,33.0,-2.191,-0.214,0.542
-0.0137,0.0884,1.0146,33.0,-2.252,-0.534,0.595
-0.0046,0.0881,1.0249,33.09,-2.313,-0.359,0.504
-0.01,0.0852,1.0283,33.05,-2.183,-0.252,0.58
-0.0098,0.0828,1.0203,33.05,-2.237,-0.427,0.603
-0.0144,0.084,1.0217,33.05,-2.153,-0.252,0.557
-0.0134,0.083,1.0137,33.05,-2.176,-0.473,0.664
-0.0073,0.0837,1.0242,32.95,-1.992,-0.298,0.511
-0.0139,0.0842,1.0237,33.05,-2.168,-0.481,0.641
-0.0078,0.0859,1.0203,33.05,-2.221,-0.237,0.725
-0.0061,0.0796,1.0276,33.05,-2.183,-0.351,0.618
-0.0115,0.0842,1.0188,33.14,-2.198,-0.458,0.611
-0.0105,0.0784,1.0225,33.14,-2.214,-0.366,0.802
-0.0107,0.0876,1.0225,33.05,-2.191,-0.473,0.687
-0.0066,0.0808,1.0198,33.05,-2.298,-0.473,0.687
-0.009,0.0842,1.0288,33.14,-2.122,-0.718,0.695
-0.0125,0.0789,1.0234,33.05,-2.115,-0.45,0.611
-0.0146,0.0886,1.022,33.09,-2.206,-0.336,0.542
-0.012,0.0864,1.0276,33.0,-2.206,-0.344,0.595
-0.0083,0.0847,1.0217,33.09,-2.206,-0.366,0.779
-0.0078,0.0796,1.0149,33.0,-2.191,-0.481,0.718
-0.01,0.0867,1.0254,33.09,-2.359,-0.481,0.664
-0.0061,0.084,1.0203,33.09,-2.214,-0.397,0.527
-0.0083,0.0825,1.033,33.09,-2.168,-0.382,0.565
-0.0068,0.0823,1.0193,33.09,-2.198,-0.359,0.466
-0.0122,0.0837,1.0183,33.09,-2.267,-0.267,0.595
-0.0027,0.0864,1.0242,33.0,-2.038,-0.344,0.702
-0.0134,0.0854,1.02,33.19,-2.031,-0.275,0.595
-0.0095,0.0891,1.0227,33.09,-2.206,-0.496,0.702
-0.0093,0.0803,1.0193,33.14,-2.206,-0.489,0.702
-0.0105,0.0833,1.021,33.05,-2.145,-0.557,0.489
-0.0134,0.0828,1.0215,32.95,-2.405,-0.328,0.641
-0.0061,0.0798,1.0215,33.05,-2.221,-0.489,0.626
-0.01,0.0833,1.0259,33.14,-2.336,-0.298,0.748
-0.0127,0.0796,1.0193,33.05,-2.313,-0.443,0.656
-0.0132,0.0901,1.0205,33.05,-1.992,-0.412,0.664
-0.0068,0.0784,1.0212,32.95,-2.214,-0.366,0.443
-0.0068,0.0876,1.0146,33.05,-2.244,-0.405,0.855
-0.0127,0.0835,1.021,33.14,-2.168,-0.305,0.489
-0.0073,0.0872,1.0239,33.05,-2.183,-0.374,0.534
-0.0061,0.0811,1.0237,32.95,-2.183,-0.595,0.702
-0.0066,0.0862,1.0188,33.14,-2.13,-0.542,0.618
-0.012,0.0847,1.0251,33.05,-2.206,-0.366,0.695
-0.0068,0.0798,1.0256,33.14,-2.16,-0.359,0.641
-0.01,0.0847,1.0264,33.05,-2.29,-0.481,0.756
-0.0034,0.0903,1.0234,33.14,-2.244,-0.26,0.656
-0.0076,0.0796,1.0159,33.05,-2.115,-0.443,0.634
-0.0044,0.0864,1.0229,33.14,-2.13,-0.534,0.664
-0.0103,0.0796,1.019,33.14,-2.267,-0.466,0.573
-0.0125,0.0845,1.021,33.05,-2.084,-0.328,0.511
-0.0061,0.0935,1.0149,33.0,-2.305,-0.244,0.519
-0.0161,0.0835,1.0264,33.05,-2.229,-0.55,0.511
-0.0083,0.0825,1.0237,33.0,-2.244,-0.206,0.702
-0.0095,0.0859,1.0166,33.14,-2.42,-0.397,0.55
-0.0095,0.0845,1.0288,33.09,-2.099,-0.397,0.779
-0.0183,0.0859,1.022,33.05,-2.183,-0.489,0.557
-0.012,0.0845,1.0205,33.09,-2.198,-0.389,0.679
-0.0144,0.0811,1.0234,33.05,-2.038,-0.29,0.626
-0.0088,0.083,1.0222,33.09,-2.191,-0.198,0.84
-0.0073,0.0857,1.0146,33.05,-2.061,-0.573,0.519
-0.0129,0.0825,1.0171,33.09,-2.229,-0.427,0.763
-0.0073,0.0825,1.0305,33.14,-2.275,-0.466,0.71
-0.0061,0.0854,1.0286,33.05,-2.214,-0.443,0.534
-0.0068,0.0911,1.0237,33.14,-2.137,-0.252,0.733
-0.0103,0.0864,1.0132,33.05,-2.458,-0.519,0.718
-0.0088,0.0867,1.0166,33.14,-2.229,-0.443,0.641
-0.0042,0.0808,1.0281,33.05,-2.16,-0.435,0.595
-0.0117,0.0845,1.0254,33.05,-2.015,-0.45,0.573
-0.0122,0.0854,1.02,33.05,-2.092,-0.42,0.679
-0.0132,0.0835,1.0115,33.14,-2.221,-0.55,0.496
-0.0112,0.082,1.0256,33.05,-2.206,-0.534,0.672
-0.0151,0.082,1.0217,33.14,-2.374,-0.282,0.534
-0.0107,0.0872,1.0193,32.95,-2.13,-0.405,0.817
-0.0056,0.0825,1.0208,33.14,-2.26,-0.496,0.55
-0.0146,0.082,1.0195,33.05,-2.191,-0.443,0.71
-0.01,0.0903,1.0242,33.05,-2.046,-0.588,0.817
-0.0103,0.0852,1.0183,33.14,-2.237,-0.473,0.679
-0.0085,0.0771,1.0217,33.0,-2.198,-0.412,0.733
-0.011,0.0862,1.0137,33.09,-2.153,-0.443,0.847
-0.009,0.0854,1.02,33.0,-2.183,-0.481,0.802
-0.0137,0.0825,1.0161,33.0,-2.183,-0.374,0.565
-0.0122,0.0859,1.0229,33.09,-2.206,-0.458,0.824
-0.0132,0.0835,1.0264,33.09,-2.13,-0.511,0.626
-0.0083,0.0847,1.0295,33.09,-2.229,-0.443,0.756
-0.0071,0.0811,1.0254,33.09,-2.153,-0.466,0.725
-0.0037,0.0769,1.0273,33.09,-2.168,-0.489,0.534
-0.0029,0.084,1.0276,33.09,-2.198,-0.282,0.695
-0.0081,0.0911,1.0251,33.09,-2.305,-0.344,0.687
-0.0063,0.0867,1.0217,33.09,-2.244,-0.374,0.511
-0.0085,0.0798,1.0239,33.05,-2.237,-0.504,0.656
-0.0078,0.0837,1.0178,33.09,-2.374,-0.496,0.687
-0.0149,0.082,1.0186,33.09,-2.344,-0.45,0.702
-0.0129,0.082,1.019,33.05,-2.229,-0.374,0.481
-0.0093,0.0872,1.0222,33.05,-2.366,-0.275,0.412
-0.0134,0.0837,1.0254,33.05,-2.069,-0.519,0.779
-0.0164,0.0845,1.0203,33.0,-2.191,-0.29,0.588
-0.0093,0.0923,1.0134,33.05,-2.214,-0.458,0.679
-0.0117,0.083,1.0264,33.05,-2.374,-0.229,0.45
-0.0073,0.0828,1.0146,33.05,-2.252,-0.252,0.519
-0.0139,0.0906,1.0259,33.05,-2.252,-0.397,0.695
-0.0107,0.083,1.0237,33.05,-2.267,-0.427,0.656
-0.0107,0.0796,1.0278,33.05,-2.244,-0.412,0.695
-0.0044,0.0857,1.0195,33.14,-2.267,-0.321,0.725
-0.0137,0.0854,1.0286,33.05,-2.092,-0.359,0.565
-0.0085,0.0823,1.0283,33.05,-2.328,-0.519,0.672
-0.0081,0.0786,1.0173,33.05,-2.267,-0.618,0.565
-0.0093,0.0842,1.0208,33.14,-2.076,-0.473,0.809
-0.0093,0.0835,1.0168,33.05,-2.305,-0.511,0.634
-0.0061,0.0867,1.0264,33.05,-2.206,-0.534,0.489
-0.0151,0.0854,1.0225,33.09,-2.191,-0.473,0.641
-0.0083,0.0864,1.0232,33.09,-2.237,-0.542,0.725
-0.0081,0.0808,1.0242,33.05,-2.435,-0.458,0.687
-0.0115,0.0835,1.0183,33.05,-2.16,-0.412,0.664
-0.0059,0.0862,1.0295,33.14,-2.145,-0.473,0.687
-0.0095,0.0837,1.0144,33.05,-2.29,-0.511,0.74
-0.0046,0.0823,1.0151,33.14,-2.305,-0.229,0.824
-0.011,0.0859,1.0259,33.05,-2.145,-0.305,0.626
-0.0066,0.0833,1.0208,33.05,-2.237,-0.374,0.595
-0.0151,0.0874,1.0205,33.05,-2.191,-0.198,0.542
-0.0088,0.0864,1.0193,33.05,-1.931,-0.45,0.763
-0.009,0.0813,1.0193,33.05,-2.359,-0.519,0.618
-0.0139,0.0806,1.0322,33.14,-2.229,-0.29,0.595
-0.0078,0.0786,1.0244,33.05,-2.275,-0.534,0.74
-0.0115,0.0828,1.0188,33.05,-2.252,-0.466,0.702
-0.0042,0.0891,1.0266,33.0,-2.13,-0.244,0.718
-0.0095,0.0884,1.0137,33.09,-2.092,-0.412,0.656
-0.0081,0.0815,1.021,33.09,-2.359,-0.397,0.649
-0.0068,0.0808,1.021,33.0,-2.122,-0.466,0.565
-0.0059,0.0847,1.0098,33.0,-2.366,-0.427,0.595
-0.009,0.0828,1.0281,33.0,-2.145,-0.527,0.626
-0.0105,0.0815,1.0242,33.09,-2.023,-0.336,0.725
-0.0044,0.0808,1.0271,33.0,-2.137,-0.458,0.687
-0.0115,0.0833,1.0225,33.0,-2.107,-0.336,0.695
-0.0103,0.082,1.011,33.0,-2.099,-0.298,0.687
-0.0105,0.0845,1.0234,33.0,-2.046,-0.389,0.618
-0.0117,0.0793,1.0244,33.09,-2.244,-0.359,0.565
-0.0127,0.0847,1.0283,33.09,-2.252,-0.267,0.878
-0.0061,0.0815,1.0225,33.09,-2.321,-0.366,0.611
-0.0046,0.0815,1.0132,33.09,-2.191,-0.611,0.656
-0.012,0.0823,1.0234,33.0,-2.115,-0.389,0.641
-0.012,0.0815,1.0178,33.09,-2.0,-0.489,0.695
-0.01,0.084,1.0195,33.09,-2.092,-0.565,0.565
-0.0076,0.0864,1.0212,33.0,-2.221,-0.298,0.71
-0.009,0.0879,1.0107,33.0,-2.122,-0.534,0.748
-0.0056,0.0859,1.0149,33.09,-2.237,-0.351,0.702
-0.0129,0.0884,1.0195,33.09,-2.29,-0.275,0.672
-0.0076,0.0818,1.0251,33.05,-2.13,-0.221,0.588
-0.0071,0.0857,1.0256,33.0,-2.145,-0.473,0.588
-0.009,0.0894,1.0171,33.14,-2.153,-0.435,0.802
-0.0107,0.0806,1.012,33.09,-2.191,-0.328,0.656
-0.0029,0.0879,1.0295,32.95,-2.191,-0.382,0.595
-0.0051,0.0823,1.031,33.09,-2.069,-0.595,0.634
-0.0059,0.0857,1.0229,33.05,-2.046,-0.374,0.718
-0.0049,0.0874,1.022,33.09,-2.229,-0.382,0.55
-0.0112,0.0859,1.0291,33.14,-2.221,-0.443,0.794
-0.011,0.0811,1.0203,33.0,-2.115,-0.366,0.802
-0.0061,0.0842,1.009,33.14,-2.405,-0.351,0.527
-0.0137,0.0852,1.0212,33.0,-2.168,-0.435,0.672
-0.0093,0.0818,1.0271,33.14,-2.107,-0.412,0.557
-0.0125,0.0825,1.0212,33.09,-2.26,-0.542,0.618
-0.0061,0.0852,1.0312,33.05,-2.313,-0.244,0.527
-0.0103,0.0833,1.0305,33.0,-2.031,-0.435,0.511
-0.0081,0.0823,1.0205,33.05,-2.26,-0.42,0.679
-0.012,0.0825,1.0137,33.0,-2.176,-0.534,0.672
-0.0068,0.0857,1.0203,33.0,-2.298,-0.397,0.695
-0.0139,0.0879,1.0156,33.09,-2.137,-0.374,0.695
-0.0056,0.0801,1.0232,33.09,-2.214,-0.42,0.542
-0.0156,0.0835,1.031,33.09,-2.527,-0.435,0.756
-0.0051,0.0857,1.0234,33.0,-2.313,-0.496,0.634
-0.0173,0.0852,1.0254,33.14,-2.237,-0.298,0.687
-0.009,0.0857,1.0195,33.05,-2.084,-0.328,0.618
-0.0098,0.0803,1.0256,33.14,-2.229,-0.328,0.756
-0.0105,0.0872,1.0186,33.14,-2.221,-0.313,0.733
-0.0078,0.0884,1.0242,33.14,-2.115,-0.351,0.748
-0.0115,0.0813,1.0217,33.05,-2.16,-0.45,0.58
-0.0085,0.0815,1.0361,33.05,-2.183,-0.458,0.664
-0.0085,0.0801,1.0139,33.05,-2.198,-0.443,0.824
-0.0103,0.085,1.0146,33.14,-2.145,-0.313,0.695
-0.0149,0.0823,1.019,32.95,-2.176,-0.366,0.496
-0.0063,0.0852,1.021,33.14,-2.046,-0.237,0.588
-0.0125,0.0857,1.0249,33.14,-2.115,-0.466,0.573
-0.012,0.0852,1.031,33.14,-1.969,-0.305,0.695
-0.0098,0.0828,1.0244,33.14,-2.053,-0.435,0.695
-0.0098,0.0847,1.0469,33.05,-2.038,-0.733,0.641
-0.012,0.0837,1.0271,33.05,-2.313,-0.382,0.649
-0.0142,0.0835,1.0166,33.05,-2.45,-0.443,0.557
-0.012,0.083,1.0171,33.05,-2.298,-0.244,0.702
-0.0112,0.0879,1.0273,33.05,-1.695,-0.351,0.672
-0.0134,0.082,1.0225,33.05,-2.115,-0.168,0.71
-0.0107,0.0884,1.0149,33.05,-2.061,-0.061,0.534
-0.0105,0.0881,1.0198,33.14,-2.061,-0.458,0.87
-0.0054,0.0823,1.021,33.05,-2.183,-0.321,0.565
-0.0056,0.0842,1.0212,33.05,-2.229,-0.443,0.74
-0.01,0.083,1.0208,33.05,-2.153,-0.534,0.718
-0.0022,0.085,1.0227,33.05,-2.13,-0.313,0.763
-0.0146,0.0874,1.0337,33.05,-2.206,-0.115,0.443
-0.0044,0.0833,1.0088,33.05,-2.13,-0.481,0.626
-0.0115,0.0842,1.0208,33.05,-2.137,-0.603,0.641
-0.012,0.0779,1.0251,33.05,-1.817,1.244,0.985
-0.0076,0.0798,1.0171,33.09,-2.313,-0.412,0.718
-0.012,0.0918,1.0232,33.09,-2.336,-0.466,0.374
-0.0312,0.0813,1.0366,33.14,-3.824,-1.481,0.527
-0.009,0.0811,1.0229,33.14,-2.176,-0.466,0.649
-0.0073,0.0833,1.0239,33.05,-2.298,-0.519,0.672
-0.0134,0.0835,1.0164,33.05,-2.183,-0.29,0.626
-0.0127,0.0864,1.0239,33.05,-2.221,-0.481,0.672
-0.0154,0.0889,1.0249,33.05,-2.061,-0.336,0.595
-0.0078,0.0854,1.0129,33.05,-2.191,-0.427,0.695
-0.0112,0.0845,1.0278,33.05,-2.328,-0.45,0.771
-0.0056,0.0811,1.0183,33.14,-2.107,-0.481,0.71
-0.0105,0.0874,1.0249,33.05,-2.359,-0.397,0.55
-0.0107,0.0845,1.0129,33.05,-2.13,-0.389,0.626
-0.012,0.0857,1.0188,33.05,-2.321,-0.359,0.656
-0.0178,0.0854,1.0183,33.14,-2.244,-0.389,0.603
-0.0127,0.0801,1.0259,33.14,-2.198,-0.382,0.672
-0.0112,0.082,1.0151,33.05,-2.198,-0.344,0.695
-0.0085,0.0764,1.0276,33.05,-2.198,-0.282,0.634
-0.0093,0.0837,1.0212,33.14,-2.076,-0.45,0.832
-0.0085,0.0823,1.022,33.05,-2.298,-0.496,0.702
-0.0068,0.0818,1.0212,33.14,-2.122,-0.382,0.603
-0.0068,0.0845,1.0173,32.95,-2.313,-0.473,0.748
-0.0095,0.0886,1.021,33.05,-1.985,-0.397,0.74
-0.0161,0.0837,1.0222,33.14,-1.954,-0.389,0.718
-0.0068,0.0806,1.0295,33.05,-2.252,-0.527,0.74
-0.0093,0.0864,1.0112,33.05,-2.26,-0.443,0.748
-0.0134,0.0852,1.0273,32.95,-2.046,-0.237,0.58
-0.0081,0.0828,1.0225,33.05,-2.351,-0.313,0.45
-0.0115,0.0786,1.0229,33.05,-2.176,-0.466,0.656
-0.0103,0.0874,1.0151,32.95,-2.29,-0.58,0.58
-0.0061,0.085,1.0247,33.05,-2.206,-0.374,0.527
-0.0076,0.0808,1.0222,33.14,-2.267,-0.321,0.733
-0.0085,0.0823,1.0225,33.09,-2.183,-0.443,0.511
-0.0054,0.0823,1.0132,33.09,-2.221,-0.305,0.664
-0.0054,0.0825,1.0237,33.09,-2.046,-0.473,0.817
-0.0078,0.0862,1.0259,33.09,-2.206,-0.412,0.641
-0.0061,0.085,1.02,33.09,-2.328,-0.443,0.725
-0.0081,0.0823,1.0208,33.0,-2.061,-0.496,0.893
-0.0125,0.0864,1.0227,33.09,-2.29,-0.466,0.634
-0.0017,0.0881,1.0232,33.09,-2.198,-0.313,0.588
-0.0122,0.0869,1.0244,33.0,-2.252,-0.282,0.634
-0.0061,0.0847,1.0247,33.0,-2.168,-0.435,0.588
-0.0142,0.0833,1.0166,33.0,-2.214,-0.359,0.672
-0.0168,0.0845,1.033,33.09,-2.176,-0.496,0.779
-0.0103,0.0901,1.0281,33.09,-2.153,-0.389,0.489
-0.0132,0.0833,1.0273,33.09,-2.137,-0.046,0.702
-0.01,0.0845,1.0271,33.09,-2.221,-0.397,0.702
-0.0115,0.0881,1.0198,33.0,-2.244,-0.458,0.634
-0.0095,0.0806,1.0225,33.09,-2.13,-0.458,0.588
-0.0107,0.0825,1.0215,33.0,-2.214,-0.42,0.443
-0.0146,0.0847,1.0193,33.0,-2.031,-0.374,0.771
-0.0085,0.0881,1.0293,33.05,-2.191,-0.397,0.534
-0.0068,0.0852,1.0212,33.05,-2.229,-0.298,0.748
-0.0093,0.0837,1.0229,33.05,-2.267,-0.313,0.595
-0.009,0.0815,1.0212,33.05,-2.298,-0.443,0.595
-0.009,0.0894,1.0161,33.14,-2.29,-0.176,0.71
-0.0166,0.0803,1.0256,33.14,-2.206,-0.344,0.55
-0.0137,0.0886,1.0193,33.05,-2.282,-0.42,0.611
-0.0039,0.083,1.0242,33.05,-2.191,-0.45,0.748
-0.0056,0.0923,1.0244,33.14,-2.267,-0.519,0.603
-0.0093,0.0806,1.0227,33.05,-2.206,-0.229,0.702
-0.0098,0.0845,1.0232,33.05,-2.122,-0.458,0.725
-0.0115,0.0847,1.0273,33.05,-2.26,-0.275,0.656
-0.0107,0.0867,1.0183,33.19,-2.176,-0.534,0.695
-0.01,0.0891,1.0217,33.0,-2.336,-0.328,0.611
-0.0095,0.0837,1.0249,33.05,-2.29,-0.412,0.802
-0.0103,0.0767,1.0203,33.05,-2.206,-0.397,0.58
-0.0125,0.0791,1.0254,33.05,-2.275,-0.42,0.519
-0.0137,0.0803,1.02,32.95,-2.0,-0.351,0.756
-0.011,0.0811,1.0293,33.14,-2.137,-0.42,0.458
-0.0161,0.0867,1.0171,33.05,-2.214,-0.542,0.58
-0.0063,0.0837,1.0193,33.09,-2.145,-0.344,0.519
-0.0061,0.085,1.0134,32.95,-2.13,-0.374,0.786
-0.0103,0.0815,1.0137,33.0,-2.092,-0.458,0.718
-0.0061,0.0825,1.0261,32.95,-2.183,-0.412,0.763
-0.0066,0.0837,1.0203,33.09,-2.023,-0.26,0.519
-0.0095,0.0867,1.019,33.14,-2.076,-0.351,0.42
-0.0105,0.0852,1.0232,33.09,-2.084,-0.359,0.557
-0.0122,0.0869,1.0127,33.09,-2.176,-0.206,0.618
-0.0149,0.0896,1.0295,33.09,-2.397,-0.427,0.649
-0.0049,0.0828,1.0227,33.09,-2.237,-0.45,0.626
-0.0098,0.084,1.019,33.0,-2.031,-0.382,0.649
-0.0107,0.0815,1.0337,33.09,-2.107,-0.458,0.695
-0.0115,0.0833,1.0159,33.0,-2.069,-0.382,0.702
-0.011,0.0808,1.03,33.14,-2.344,-0.321,0.794
-0.0156,0.0867,1.0366,33.05,-2.267,-0.496,0.748
-0.0083,0.082,1.0146,33.05,-2.076,-0.542,0.527
-0.0068,0.0845,1.0193,33.05,-2.427,-0.504,0.718
-0.0171,0.0872,1.0229,33.05,-2.305,-0.374,0.649
-0.0107,0.0854,1.0242,33.14,-2.122,-0.382,0.618
-0.0095,0.0842,1.0288,33.05,-2.031,-0.412,0.74
-0.0083,0.0818,1.0232,33.05,-2.145,-0.489,0.748
-0.0144,0.0845,1.022,33.05,-2.26,-0.397,0.756
